Timestamp,Label,AccelX,AccelY,AccelZ,GyroX,GyroY,GyroZ,IR
2025-02-26 00:52:25.848103,sleep,9.837775,1.077391,-0.938527,-0.055957,0.023982,-0.014655,116088
2025-02-26 00:52:25.848103,sleep,9.837775,1.091756,-0.921768,-0.055424,0.022916,-0.014655,116156
2025-02-26 00:52:25.848103,sleep,9.85214,1.101333,-0.936133,-0.054625,0.023715,-0.014123,116271
2025-02-26 00:52:25.848103,sleep,9.861717,1.079785,-0.936133,-0.055158,0.022916,-0.014389,116202
2025-02-26 00:52:25.848103,sleep,9.847352,1.053449,-0.914585,-0.054625,0.022649,-0.014655,116322
2025-02-26 00:52:25.848103,sleep,9.847352,1.055843,-0.948104,-0.055158,0.022649,-0.01359,116290
2025-02-26 00:52:25.848103,sleep,9.842564,1.079785,-0.924162,-0.054625,0.023982,-0.014922,116244
2025-02-26 00:52:25.848103,sleep,9.859323,1.072602,-0.938527,-0.054891,0.022383,-0.013856,116221
2025-02-26 00:52:25.848103,sleep,9.859323,1.084573,-0.926556,-0.054891,0.022116,-0.01359,116217
2025-02-26 00:52:25.848103,sleep,9.825804,1.067814,-0.943315,-0.055691,0.023182,-0.014123,116260
2025-02-26 00:52:25.848103,sleep,9.844957,1.060631,-0.912191,-0.055158,0.022383,-0.014655,116323
2025-02-26 00:52:25.848103,sleep,9.849746,1.082179,-0.943315,-0.054891,0.023449,-0.014123,116297
2025-02-26 00:52:25.848103,sleep,9.856929,1.072602,-0.926556,-0.055424,0.023982,-0.013856,116298
2025-02-26 00:52:25.848103,sleep,9.844957,1.084573,-0.916979,-0.055691,0.022649,-0.014389,116287
2025-02-26 00:52:25.848103,sleep,9.856929,1.067814,-0.926556,-0.055424,0.023982,-0.013856,116315
2025-02-26 00:52:25.848103,sleep,9.847352,1.067814,-0.955287,-0.054891,0.023449,-0.015188,116299
2025-02-26 00:52:25.848103,sleep,9.847352,1.086968,-0.948104,-0.054891,0.021583,-0.014389,116268
2025-02-26 00:52:25.848103,sleep,9.818622,1.072602,-0.940921,-0.054891,0.021317,-0.015188,116311
2025-02-26 00:52:25.848103,sleep,9.844957,1.070208,-0.94571,-0.055424,0.025314,-0.014922,116317
2025-02-26 00:52:25.848103,sleep,9.859323,1.070208,-0.931344,-0.055158,0.023715,-0.014123,116359
2025-02-26 00:52:25.848103,sleep,9.849746,1.074997,-0.936133,-0.054358,0.020251,-0.015188,116309
2025-02-26 00:52:25.848103,sleep,9.871294,1.074997,-0.943315,-0.055158,0.019985,-0.015455,115941
2025-02-26 00:52:25.848103,sleep,9.837775,1.06542,-0.919373,-0.055691,0.023982,-0.014922,115421
2025-02-26 00:52:25.848103,sleep,9.837775,1.079785,-0.938527,-0.05649,0.023982,-0.014655,114847
2025-02-26 00:52:25.848103,sleep,9.844957,1.058237,-0.933739,-0.054891,0.024515,-0.014655,114530
2025-02-26 00:52:25.848103,sleep,9.840169,1.091756,-0.912191,-0.055691,0.02185,-0.014922,114349
2025-02-26 00:52:25.848103,sleep,9.85214,1.084573,-0.88346,-0.055691,0.022116,-0.014922,114316
2025-02-26 00:52:25.848103,sleep,9.856929,1.072602,-0.936133,-0.055158,0.02185,-0.013856,114339
2025-02-26 00:52:25.848103,sleep,9.82341,1.060631,-0.950498,-0.054891,0.022383,-0.015188,114377
2025-02-26 00:52:25.848103,sleep,9.849746,1.091756,-0.933739,-0.054358,0.021317,-0.014123,114513
2025-02-26 00:52:25.848103,sleep,9.82341,1.070208,-0.938527,-0.055158,0.021317,-0.013856,114490
2025-02-26 00:52:25.848103,sleep,9.849746,1.06542,-0.909797,-0.055957,0.022383,-0.014123,114624
2025-02-26 00:52:25.848103,sleep,9.856929,1.079785,-0.938527,-0.055691,0.026113,-0.014389,114720
2025-02-26 00:52:25.848103,sleep,9.832987,1.077391,-0.90022,-0.055957,0.025047,-0.013856,114809
2025-02-26 00:52:25.848103,sleep,9.816227,1.079785,-0.905008,-0.055158,0.022649,-0.013856,114844
2025-02-26 00:52:25.848103,sleep,9.864111,1.074997,-0.926556,-0.055691,0.027712,-0.013856,114906
2025-02-26 00:52:25.848103,sleep,9.859323,1.060631,-0.914585,-0.055691,0.027712,-0.01359,115039
2025-02-26 00:52:25.848103,sleep,9.849746,1.046266,-0.931344,-0.055424,0.024515,-0.014123,115115
2025-02-26 00:52:25.848103,sleep,9.847352,1.070208,-0.919373,-0.054891,0.022383,-0.014123,115170
2025-02-26 00:52:25.848103,sleep,9.847352,1.067814,-0.921768,-0.054891,0.021317,-0.015188,115206
2025-02-26 00:52:25.848103,sleep,9.847352,1.074997,-0.957681,-0.055424,0.023182,-0.014922,115171
2025-02-26 00:52:25.848103,sleep,9.844957,1.086968,-0.940921,-0.055957,0.023715,-0.014655,115225
2025-02-26 00:52:25.848103,sleep,9.828198,1.063026,-0.962469,-0.055424,0.026113,-0.013323,115213
2025-02-26 00:52:25.848103,sleep,9.85214,1.067814,-0.926556,-0.055957,0.024781,-0.015188,115268
2025-02-26 00:52:25.848103,sleep,9.835381,1.070208,-0.907402,-0.055957,0.023715,-0.015188,115249
2025-02-26 00:52:25.848103,sleep,9.840169,1.063026,-0.926556,-0.055158,0.023182,-0.01359,115324
2025-02-26 00:52:25.848103,sleep,9.832987,1.067814,-0.909797,-0.055691,0.022649,-0.013856,115298
2025-02-26 00:52:25.848103,sleep,9.844957,1.082179,-0.905008,-0.054358,0.022383,-0.014655,115390
2025-02-26 00:52:25.848103,sleep,9.856929,1.074997,-0.94571,-0.055158,0.022916,-0.015188,115504
2025-02-26 00:52:25.848103,sleep,9.832987,1.055843,-0.90022,-0.055424,0.023449,-0.014655,115585
2025-02-26 00:52:25.848103,sleep,9.85214,1.051055,-0.916979,-0.055158,0.023982,-0.014922,115662
2025-02-26 00:52:25.848103,sleep,9.832987,1.084573,-0.897826,-0.055691,0.024515,-0.015188,115650
2025-02-26 00:52:25.848103,sleep,9.837775,1.051055,-0.907402,-0.055957,0.023449,-0.014655,115627
2025-02-26 00:52:25.848103,sleep,9.840169,1.089362,-0.926556,-0.055424,0.023982,-0.014123,115679
2025-02-26 00:52:25.848103,sleep,9.849746,1.060631,-0.919373,-0.054891,0.024515,-0.014123,115761
2025-02-26 00:52:25.848103,sleep,9.854534,1.070208,-0.940921,-0.055691,0.024515,-0.014123,115831
2025-02-26 00:52:25.848103,sleep,9.856929,1.070208,-0.926556,-0.056224,0.024248,-0.014655,115937
2025-02-26 00:52:25.848103,sleep,9.844957,1.070208,-0.909797,-0.055158,0.023715,-0.015188,115942
2025-02-26 00:52:25.848103,sleep,9.856929,1.077391,-0.90022,-0.055424,0.023182,-0.014655,115962
2025-02-26 00:52:25.848103,sleep,9.849746,1.06542,-0.902614,-0.054891,0.022916,-0.014389,115994
2025-02-26 00:52:25.848103,sleep,9.861717,1.060631,-0.914585,-0.055424,0.022383,-0.014389,116057
2025-02-26 00:52:25.848103,sleep,9.861717,1.091756,-0.924162,-0.054358,0.024515,-0.014655,116060
2025-02-26 00:52:25.848103,sleep,9.837775,1.101333,-0.914585,-0.054891,0.022649,-0.014922,116056
2025-02-26 00:52:25.848103,sleep,9.85214,1.060631,-0.921768,-0.055424,0.024248,-0.014655,116129
2025-02-26 00:52:25.848103,sleep,9.840169,1.063026,-0.924162,-0.055158,0.024515,-0.014655,116057
2025-02-26 00:52:25.848103,sleep,9.832987,1.089362,-0.895431,-0.054891,0.024248,-0.013856,116236
2025-02-26 00:52:25.848103,sleep,9.835381,1.082179,-0.924162,-0.055424,0.024781,-0.014655,116333
2025-02-26 00:52:25.848103,sleep,9.85214,1.079785,-0.916979,-0.056224,0.023449,-0.014389,116129
2025-02-26 00:52:25.848103,sleep,9.835381,1.072602,-0.924162,-0.054891,0.023449,-0.014123,116364
2025-02-26 00:52:25.848103,sleep,9.861717,1.082179,-0.933739,-0.055424,0.022383,-0.014123,116413
2025-02-26 00:52:25.848103,sleep,9.849746,1.086968,-0.897826,-0.055691,0.023715,-0.015721,116430
2025-02-26 00:52:25.848103,sleep,9.847352,1.082179,-0.931344,-0.056224,0.023982,-0.015188,116532
2025-02-26 00:52:25.848103,sleep,9.85214,1.074997,-0.888249,-0.055158,0.022649,-0.014655,116552
2025-02-26 00:52:25.848103,sleep,9.859323,1.074997,-0.926556,-0.055424,0.024248,-0.014655,116572
2025-02-26 00:52:25.848103,sleep,9.837775,1.063026,-0.938527,-0.055424,0.022916,-0.014123,116517
2025-02-26 00:52:25.848103,sleep,9.859323,1.077391,-0.916979,-0.055158,0.023715,-0.01359,116473
2025-02-26 00:52:25.848103,sleep,9.82341,1.084573,-0.921768,-0.055691,0.023715,-0.013856,116473
2025-02-26 00:52:25.848103,sleep,9.832987,1.079785,-0.916979,-0.054625,0.023715,-0.015455,116520
2025-02-26 00:52:25.848103,sleep,9.840169,1.072602,-0.933739,-0.054625,0.023182,-0.014655,116576
2025-02-26 00:52:25.848103,sleep,9.840169,1.067814,-0.914585,-0.055424,0.023182,-0.014389,116591
2025-02-26 00:52:25.848103,sleep,9.832987,1.058237,-0.943315,-0.056224,0.022116,-0.014922,116570
2025-02-26 00:52:25.848103,sleep,9.835381,1.060631,-0.931344,-0.055158,0.022649,-0.014389,116576
2025-02-26 00:52:25.848103,sleep,9.847352,1.063026,-0.914585,-0.054891,0.022916,-0.015455,116536
2025-02-26 00:52:25.848103,sleep,9.849746,1.072602,-0.936133,-0.054891,0.022383,-0.013856,116565
2025-02-26 00:52:25.848103,sleep,9.847352,1.079785,-0.916979,-0.055424,0.023982,-0.014655,116518
2025-02-26 00:52:25.848103,sleep,9.871294,1.079785,-0.924162,-0.055424,0.019718,-0.015455,116507
2025-02-26 00:52:25.848103,sleep,9.842564,1.070208,-0.921768,-0.055424,0.021317,-0.015188,116323
2025-02-26 00:52:25.848103,sleep,9.854534,1.074997,-0.931344,-0.054891,0.022649,-0.015988,115945
2025-02-26 00:52:25.848103,sleep,9.828198,1.060631,-0.902614,-0.056224,0.023715,-0.014922,115454
2025-02-26 00:52:25.848103,sleep,9.835381,1.084573,-0.897826,-0.05649,0.023982,-0.015455,114960
2025-02-26 00:52:25.848103,sleep,9.854534,1.072602,-0.907402,-0.055158,0.022916,-0.015721,114621
2025-02-26 00:52:25.848103,sleep,9.840169,1.077391,-0.924162,-0.054891,0.023182,-0.014922,114462
2025-02-26 00:52:25.848103,sleep,9.856929,1.070208,-0.924162,-0.055158,0.023715,-0.014655,114468
2025-02-26 00:52:25.848103,sleep,9.840169,1.074997,-0.919373,-0.054092,0.02185,-0.014655,114609
2025-02-26 00:52:25.848103,sleep,9.847352,1.086968,-0.912191,-0.054891,0.022383,-0.014123,114729
2025-02-26 00:52:25.848103,sleep,9.832987,1.077391,-0.948104,-0.054625,0.021317,-0.014655,114862
2025-02-26 00:52:25.848103,sleep,9.840169,1.070208,-0.90022,-0.054092,0.02185,-0.014655,114950
2025-02-26 00:52:25.848103,sleep,9.828198,1.077391,-0.907402,-0.055158,0.023982,-0.014123,114951
2025-02-26 00:52:25.848103,sleep,9.85214,1.077391,-0.931344,-0.055957,0.025047,-0.01359,115010
2025-02-26 00:52:25.848103,sleep,9.859323,1.051055,-0.916979,-0.055158,0.021583,-0.014123,115098
2025-02-26 00:52:25.848103,sleep,9.835381,1.084573,-0.94571,-0.055158,0.024781,-0.014922,115080
2025-02-26 00:52:25.848103,sleep,9.842564,1.06542,-0.916979,-0.055957,0.024248,-0.014922,115311
2025-02-26 00:52:25.848103,sleep,9.854534,1.079785,-0.905008,-0.055158,0.023715,-0.014389,115519
2025-02-26 00:52:25.848103,sleep,9.854534,1.053449,-0.912191,-0.054358,0.020784,-0.014389,115629
2025-02-26 00:52:25.848103,sleep,9.849746,1.06542,-0.931344,-0.054891,0.019452,-0.015721,115656
2025-02-26 00:52:25.848103,sleep,9.837775,1.063026,-0.938527,-0.054891,0.022649,-0.014123,115585
2025-02-26 00:52:25.848103,sleep,9.842564,1.077391,-0.931344,-0.055691,0.023449,-0.014655,115565
2025-02-26 00:52:25.848103,sleep,9.832987,1.060631,-0.940921,-0.055957,0.024515,-0.014389,115451
2025-02-26 00:52:25.848103,sleep,9.861717,1.072602,-0.919373,-0.055957,0.024781,-0.014389,115433
2025-02-26 00:52:25.848103,sleep,9.832987,1.06542,-0.916979,-0.055691,0.022383,-0.014123,115386
2025-02-26 00:52:25.848103,sleep,9.835381,1.067814,-0.931344,-0.055424,0.023449,-0.013856,115449
2025-02-26 00:52:25.848103,sleep,9.85214,1.051055,-0.924162,-0.054891,0.022116,-0.013856,115459
2025-02-26 00:52:25.848103,sleep,9.840169,1.077391,-0.919373,-0.054625,0.022649,-0.014655,115405
2025-02-26 00:52:25.848103,sleep,9.859323,1.06542,-0.919373,-0.055424,0.022916,-0.015721,115434
2025-02-26 00:52:25.848103,sleep,9.828198,1.06542,-0.895431,-0.055424,0.023449,-0.014655,115441
2025-02-26 00:52:25.848103,sleep,9.840169,1.067814,-0.916979,-0.055424,0.023182,-0.014655,115479
2025-02-26 00:52:25.848103,sleep,9.837775,1.06542,-0.919373,-0.05649,0.022916,-0.015721,115563
2025-02-26 00:52:25.848103,sleep,9.861717,1.082179,-0.909797,-0.055424,0.024515,-0.013323,115592
2025-02-26 00:52:25.848103,sleep,9.844957,1.06542,-0.92895,-0.055691,0.024781,-0.014389,115441
2025-02-26 00:52:25.848103,sleep,9.861717,1.079785,-0.926556,-0.055424,0.022649,-0.013323,115740
2025-02-26 00:52:25.848103,sleep,9.842564,1.084573,-0.914585,-0.054358,0.024515,-0.014655,115834
2025-02-26 00:52:25.848103,sleep,9.828198,1.04866,-0.914585,-0.055957,0.023982,-0.014655,115885
2025-02-26 00:52:25.848103,sleep,9.844957,1.070208,-0.931344,-0.055158,0.023715,-0.014655,115953
2025-02-26 00:52:25.848103,sleep,9.828198,1.086968,-0.916979,-0.055158,0.022649,-0.014922,115987
2025-02-26 00:52:25.848103,sleep,9.832987,1.074997,-0.957681,-0.055158,0.024248,-0.014655,116091
2025-02-26 00:52:25.848103,sleep,9.854534,1.055843,-0.919373,-0.054358,0.023182,-0.014655,116172
2025-02-26 00:52:25.848103,sleep,9.847352,1.070208,-0.907402,-0.054891,0.022649,-0.013856,116231
2025-02-26 00:52:25.848103,sleep,9.85214,1.06542,-0.926556,-0.054891,0.022916,-0.014922,116239
2025-02-26 00:52:25.848103,sleep,9.861717,1.063026,-0.905008,-0.055957,0.023449,-0.014389,116189
2025-02-26 00:52:25.848103,sleep,9.85214,1.060631,-0.890643,-0.056224,0.023449,-0.014389,116180
2025-02-26 00:52:25.848103,sleep,9.830592,1.079785,-0.907402,-0.054891,0.023715,-0.014389,116179
2025-02-26 00:52:25.848103,sleep,9.85214,1.074997,-0.907402,-0.054891,0.023449,-0.014389,116223
2025-02-26 00:52:25.848103,sleep,9.840169,1.058237,-0.907402,-0.054358,0.023449,-0.015721,116253
2025-02-26 00:52:25.848103,sleep,9.856929,1.074997,-0.955287,-0.055158,0.023982,-0.014655,116278
2025-02-26 00:52:25.848103,sleep,9.859323,1.082179,-0.914585,-0.055424,0.022383,-0.015188,116219
2025-02-26 00:52:25.848103,sleep,9.854534,1.063026,-0.926556,-0.055424,0.022649,-0.014655,116228
2025-02-26 00:52:25.848103,sleep,9.868899,1.082179,-0.912191,-0.055158,0.023715,-0.014123,116227
2025-02-26 00:52:25.848103,sleep,9.85214,1.084573,-0.902614,-0.054891,0.023182,-0.014922,116243
2025-02-26 00:52:25.848103,sleep,9.856929,1.082179,-0.890643,-0.054358,0.022916,-0.014922,116197
2025-02-26 00:52:25.848103,sleep,9.842564,1.070208,-0.940921,-0.055424,0.022916,-0.014123,116215
2025-02-26 00:52:25.848103,sleep,9.849746,1.04866,-0.921768,-0.054891,0.024515,-0.014389,116232
2025-02-26 00:52:25.848103,sleep,9.828198,1.070208,-0.924162,-0.055424,0.024781,-0.014389,116249
2025-02-26 00:52:25.848103,sleep,9.844957,1.072602,-0.919373,-0.055424,0.024248,-0.014922,116309
2025-02-26 00:52:25.848103,sleep,9.835381,1.082179,-0.972046,-0.054625,0.023715,-0.013856,116360
2025-02-26 00:52:25.848103,sleep,9.861717,1.06542,-0.933739,-0.055158,0.022916,-0.014922,116373
2025-02-26 00:52:25.848103,sleep,9.873688,1.058237,-0.907402,-0.054625,0.021583,-0.014922,116358
2025-02-26 00:52:25.848103,sleep,9.835381,1.060631,-0.936133,-0.055691,0.025047,-0.01359,116424
2025-02-26 00:52:25.848103,sleep,9.847352,1.067814,-0.936133,-0.055158,0.023715,-0.014389,116448
2025-02-26 00:52:25.848103,sleep,9.85214,1.089362,-0.938527,-0.055691,0.021317,-0.014655,116445
2025-02-26 00:52:25.848103,sleep,9.847352,1.074997,-0.916979,-0.054891,0.020518,-0.015455,116158
2025-02-26 00:52:25.848103,sleep,9.847352,1.077391,-0.924162,-0.055691,0.022649,-0.015188,115628
2025-02-26 00:52:25.848103,sleep,9.832987,1.084573,-0.940921,-0.056224,0.022916,-0.014655,115029
2025-02-26 00:52:25.848103,sleep,9.849746,1.084573,-0.94571,-0.055957,0.022383,-0.014389,114631
2025-02-26 00:52:25.848103,sleep,9.849746,1.079785,-0.952892,-0.055424,0.023182,-0.014922,114394
2025-02-26 00:52:25.848103,sleep,9.844957,1.063026,-0.926556,-0.055691,0.023182,-0.014655,114369
2025-02-26 00:52:25.848103,sleep,9.859323,1.077391,-0.919373,-0.054891,0.023715,-0.015188,114453
2025-02-26 00:52:25.848103,sleep,9.859323,1.074997,-0.912191,-0.054358,0.021583,-0.014655,114567
2025-02-26 00:52:25.848103,sleep,9.861717,1.084573,-0.919373,-0.054358,0.020784,-0.015988,114611
2025-02-26 00:52:25.848103,sleep,9.847352,1.074997,-0.921768,-0.055158,0.022383,-0.015188,114658
2025-02-26 00:52:25.848103,sleep,9.842564,1.091756,-0.943315,-0.055158,0.023449,-0.014922,114731
2025-02-26 00:52:25.848103,sleep,9.859323,1.072602,-0.950498,-0.055957,0.024248,-0.013856,114825
2025-02-26 00:52:25.848103,sleep,9.871294,1.074997,-0.92895,-0.054891,0.024515,-0.014389,114808
2025-02-26 00:52:25.848103,sleep,9.847352,1.079785,-0.936133,-0.054625,0.022383,-0.015988,114860
2025-02-26 00:52:25.848103,sleep,9.859323,1.077391,-0.962469,-0.055957,0.025314,-0.014123,114972
2025-02-26 00:52:25.848103,sleep,9.835381,1.063026,-0.921768,-0.055691,0.025047,-0.013057,115135
2025-02-26 00:52:25.848103,sleep,9.876082,1.070208,-0.957681,-0.055424,0.022649,-0.014389,115261
2025-02-26 00:52:25.848103,sleep,9.828198,1.086968,-0.921768,-0.055424,0.02185,-0.014655,115385
2025-02-26 00:52:25.848103,sleep,9.85214,1.063026,-0.907402,-0.054891,0.019718,-0.014655,115427
2025-02-26 00:52:25.848103,sleep,9.85214,1.082179,-0.940921,-0.054625,0.021583,-0.014922,115402
2025-02-26 00:52:25.848103,sleep,9.85214,1.077391,-0.94571,-0.055424,0.024248,-0.014389,115410
2025-02-26 00:52:25.848103,sleep,9.828198,1.077391,-0.931344,-0.055424,0.025047,-0.014389,115455
2025-02-26 00:52:25.848103,sleep,9.837775,1.077391,-0.916979,-0.055691,0.024781,-0.014922,115458
2025-02-26 00:52:25.848103,sleep,9.844957,1.063026,-0.919373,-0.055158,0.023715,-0.013856,115451
2025-02-26 00:52:25.848103,sleep,9.835381,1.074997,-0.895431,-0.055424,0.024248,-0.014123,115447
2025-02-26 00:52:25.848103,sleep,9.854534,1.082179,-0.909797,-0.053825,0.023449,-0.014389,115382
2025-02-26 00:52:25.848103,sleep,9.837775,1.082179,-0.895431,-0.054625,0.022916,-0.014123,115396
2025-02-26 00:52:25.848103,sleep,9.825804,1.072602,-0.912191,-0.054891,0.023449,-0.015188,115442
2025-02-26 00:52:25.848103,sleep,9.818622,1.058237,-0.933739,-0.054625,0.022116,-0.014389,115494
2025-02-26 00:52:25.848103,sleep,9.842564,1.06542,-0.957681,-0.055424,0.022916,-0.014655,115597
2025-02-26 00:52:25.848103,sleep,9.840169,1.079785,-0.905008,-0.054891,0.024248,-0.014655,115595
2025-02-26 00:52:25.848103,sleep,9.847352,1.082179,-0.948104,-0.055158,0.023982,-0.014655,115631
2025-02-26 00:52:25.848103,sleep,9.840169,1.084573,-0.931344,-0.055158,0.023449,-0.013856,115660
2025-02-26 00:52:25.848103,sleep,9.840169,1.079785,-0.909797,-0.055158,0.023982,-0.014123,115679
2025-02-26 00:52:25.848103,sleep,9.837775,1.067814,-0.924162,-0.054891,0.023182,-0.014655,115750
2025-02-26 00:52:25.848103,sleep,9.847352,1.06542,-0.914585,-0.054625,0.022649,-0.014655,115728
2025-02-26 00:52:25.848103,sleep,9.837775,1.070208,-0.933739,-0.054891,0.023449,-0.014123,115779
2025-02-26 00:52:25.848103,sleep,9.85214,1.074997,-0.916979,-0.054891,0.022649,-0.014655,115852
2025-02-26 00:52:25.848103,sleep,9.854534,1.082179,-0.955287,-0.054891,0.023982,-0.014389,115928
2025-02-26 00:52:25.848103,sleep,9.849746,1.063026,-0.919373,-0.055158,0.023982,-0.014389,115973
2025-02-26 00:52:25.850110,sleep,9.844957,1.060631,-0.914585,-0.054891,0.023449,-0.014389,116053
2025-02-26 00:52:25.850110,sleep,9.842564,1.060631,-0.933739,-0.055158,0.023449,-0.014655,116105
2025-02-26 00:52:25.850110,sleep,9.854534,1.077391,-0.933739,-0.055691,0.023449,-0.014655,116109
2025-02-26 00:52:25.850110,sleep,9.842564,1.058237,-0.916979,-0.054625,0.023982,-0.013856,116176
2025-02-26 00:52:25.850110,sleep,9.835381,1.079785,-0.905008,-0.055158,0.022383,-0.015188,116197
2025-02-26 00:52:25.850110,sleep,9.82341,1.084573,-0.94571,-0.054625,0.022383,-0.014123,116314
2025-02-26 00:52:25.850110,sleep,9.830592,1.063026,-0.921768,-0.054891,0.024781,-0.014922,116335
2025-02-26 00:52:25.850110,sleep,9.864111,1.077391,-0.916979,-0.055158,0.023982,-0.014123,116314
2025-02-26 00:52:25.850110,sleep,9.842564,1.082179,-0.926556,-0.055957,0.023715,-0.014922,116286
2025-02-26 00:52:25.850110,sleep,9.840169,1.06542,-0.948104,-0.055424,0.023982,-0.014655,116251
2025-02-26 00:52:25.850110,sleep,9.849746,1.063026,-0.940921,-0.055691,0.021583,-0.014123,116244
2025-02-26 00:52:25.850110,sleep,9.825804,1.089362,-0.931344,-0.055158,0.022916,-0.014922,116170
2025-02-26 00:52:25.850110,sleep,9.847352,1.079785,-0.921768,-0.054625,0.023182,-0.014655,116306
2025-02-26 00:52:25.850110,sleep,9.856929,1.06542,-0.916979,-0.054358,0.022383,-0.014922,116361
2025-02-26 00:52:25.850110,sleep,9.844957,1.060631,-0.926556,-0.055158,0.022649,-0.01359,116413
2025-02-26 00:52:25.850110,sleep,9.830592,1.082179,-0.950498,-0.055957,0.023182,-0.013856,116478
2025-02-26 00:52:25.850110,sleep,9.835381,1.072602,-0.940921,-0.055424,0.022649,-0.014655,116455
2025-02-26 00:52:25.850110,sleep,9.842564,1.058237,-0.921768,-0.054891,0.022649,-0.014922,116427
2025-02-26 00:52:25.850110,sleep,9.849746,1.070208,-0.957681,-0.054358,0.024515,-0.015188,116358
2025-02-26 00:52:25.850110,sleep,9.830592,1.070208,-0.924162,-0.055424,0.022383,-0.014655,116367
2025-02-26 00:52:25.850110,sleep,9.837775,1.077391,-0.924162,-0.055691,0.023182,-0.014123,116412
2025-02-26 00:52:25.850110,sleep,9.813833,1.077391,-0.916979,-0.055158,0.022649,-0.013323,116452
2025-02-26 00:52:25.850110,sleep,9.825804,1.072602,-0.916979,-0.055158,0.02185,-0.015188,116479
2025-02-26 00:52:25.850110,sleep,9.847352,1.070208,-0.914585,-0.054358,0.021051,-0.015455,116440
2025-02-26 00:52:25.850110,sleep,9.837775,1.084573,-0.926556,-0.055158,0.023715,-0.014655,116444
2025-02-26 00:52:25.850110,sleep,9.844957,1.079785,-0.919373,-0.054625,0.025847,-0.014655,116419
2025-02-26 00:52:25.850110,sleep,9.85214,1.072602,-0.92895,-0.053825,0.020518,-0.014922,116344
2025-02-26 00:52:25.850110,sleep,9.871294,1.070208,-0.909797,-0.054625,0.020251,-0.015721,116020
2025-02-26 00:52:25.850110,sleep,9.861717,1.079785,-0.905008,-0.054625,0.022649,-0.015988,115513
2025-02-26 00:52:25.850110,sleep,9.842564,1.09415,-0.924162,-0.055691,0.023982,-0.014389,114963
2025-02-26 00:52:25.850110,sleep,9.849746,1.074997,-0.921768,-0.05649,0.024515,-0.014389,114533
2025-02-26 00:52:25.850110,sleep,9.840169,1.077391,-0.907402,-0.055691,0.023182,-0.014123,114326
2025-02-26 00:52:25.850110,sleep,9.847352,1.058237,-0.914585,-0.055424,0.023715,-0.014655,114232
2025-02-26 00:52:25.850110,sleep,9.840169,1.067814,-0.926556,-0.054092,0.023715,-0.014389,114272
2025-02-26 00:52:25.850110,sleep,9.835381,1.074997,-0.916979,-0.054092,0.023449,-0.015721,114331
2025-02-26 00:52:25.850110,sleep,9.832987,1.084573,-0.931344,-0.053825,0.022916,-0.014389,114424
2025-02-26 00:52:25.850110,sleep,9.85214,1.079785,-0.924162,-0.054891,0.023449,-0.014389,114614
2025-02-26 00:52:25.850110,sleep,9.835381,1.070208,-0.943315,-0.054891,0.023182,-0.014922,114731
2025-02-26 00:52:25.850110,sleep,9.835381,1.079785,-0.924162,-0.055957,0.025847,-0.013856,114872
2025-02-26 00:52:25.850110,sleep,9.864111,1.072602,-0.924162,-0.055158,0.025847,-0.013856,114891
2025-02-26 00:52:25.850110,sleep,9.859323,1.079785,-0.907402,-0.054891,0.02185,-0.014655,114941
2025-02-26 00:52:25.850110,sleep,9.837775,1.082179,-0.948104,-0.055424,0.026913,-0.014123,114945
2025-02-26 00:52:25.850110,sleep,9.85214,1.082179,-0.952892,-0.055424,0.027446,-0.01359,115093
2025-02-26 00:52:25.850110,sleep,9.849746,1.082179,-0.916979,-0.055158,0.024248,-0.014655,115235
2025-02-26 00:52:25.850110,sleep,9.85214,1.084573,-0.90022,-0.055691,0.022916,-0.014922,115341
2025-02-26 00:52:25.850110,sleep,9.861717,1.070208,-0.912191,-0.054625,0.022116,-0.015455,115407
2025-02-26 00:52:25.850110,sleep,9.837775,1.072602,-0.905008,-0.054358,0.022649,-0.014389,115331
2025-02-26 00:52:25.850110,sleep,9.832987,1.055843,-0.940921,-0.055691,0.024515,-0.014922,115279
2025-02-26 00:52:25.850110,sleep,9.82341,1.074997,-0.952892,-0.056224,0.025847,-0.014389,115263
2025-02-26 00:52:25.850110,sleep,9.844957,1.074997,-0.909797,-0.057289,0.025314,-0.013856,115233
2025-02-26 00:52:25.850110,sleep,9.85214,1.063026,-0.919373,-0.055957,0.025314,-0.013856,115231
2025-02-26 00:52:25.850110,sleep,9.861717,1.070208,-0.943315,-0.056224,0.025047,-0.01359,115204
2025-02-26 00:52:25.850110,sleep,9.861717,1.060631,-0.909797,-0.054891,0.024248,-0.014655,115273
2025-02-26 00:52:25.850110,sleep,9.854534,1.072602,-0.950498,-0.054891,0.022649,-0.014123,115356
2025-02-26 00:52:25.850110,sleep,9.847352,1.067814,-0.936133,-0.054891,0.021583,-0.014123,115460
2025-02-26 00:52:25.850110,sleep,9.844957,1.063026,-0.914585,-0.055424,0.022383,-0.014389,115516
2025-02-26 00:52:25.850110,sleep,9.85214,1.086968,-0.924162,-0.055158,0.022649,-0.014922,115578
2025-02-26 00:52:25.850110,sleep,9.849746,1.072602,-0.933739,-0.055424,0.023449,-0.014655,115634
2025-02-26 00:52:25.850110,sleep,9.861717,1.067814,-0.921768,-0.055691,0.023715,-0.014922,115712
2025-02-26 00:52:25.850110,sleep,9.847352,1.070208,-0.924162,-0.055424,0.024248,-0.015188,115837
2025-02-26 00:52:25.850110,sleep,9.825804,1.060631,-0.94571,-0.055424,0.023982,-0.013856,115666
2025-02-26 00:52:25.850110,sleep,9.856929,1.060631,-0.940921,-0.056224,0.023982,-0.014123,115966
2025-02-26 00:52:25.850110,sleep,9.849746,1.082179,-0.905008,-0.055691,0.023449,-0.013856,115936
2025-02-26 00:52:25.850110,sleep,9.854534,1.067814,-0.907402,-0.054625,0.024781,-0.014123,115959
2025-02-26 00:52:25.850110,sleep,9.85214,1.091756,-0.926556,-0.055158,0.023449,-0.015188,115967
2025-02-26 00:52:25.850110,sleep,9.842564,1.089362,-0.907402,-0.055424,0.024781,-0.014389,116047
2025-02-26 00:52:25.850110,sleep,9.856929,1.06542,-0.931344,-0.054891,0.022916,-0.014922,116140
2025-02-26 00:52:25.850110,sleep,9.854534,1.063026,-0.936133,-0.054092,0.023449,-0.014655,116204
2025-02-26 00:52:25.850110,sleep,9.844957,1.072602,-0.916979,-0.054891,0.023715,-0.013856,116163
2025-02-26 00:52:25.850110,sleep,9.832987,1.074997,-0.914585,-0.055691,0.024781,-0.014922,116176
2025-02-26 00:52:25.850110,sleep,9.849746,1.072602,-0.924162,-0.055158,0.023715,-0.014922,116274
2025-02-26 00:52:25.850110,sleep,9.859323,1.082179,-0.919373,-0.055158,0.022116,-0.015188,116273
2025-02-26 00:52:25.850110,sleep,9.844957,1.067814,-0.924162,-0.055424,0.023449,-0.013856,116250
2025-02-26 00:52:25.850110,sleep,9.842564,1.082179,-0.931344,-0.055424,0.023982,-0.014123,116271
2025-02-26 00:52:25.850110,sleep,9.849746,1.060631,-0.90022,-0.054092,0.023449,-0.014123,116295
2025-02-26 00:52:25.850110,sleep,9.835381,1.067814,-0.909797,-0.053559,0.023982,-0.014389,116330
2025-02-26 00:52:25.850110,sleep,9.873688,1.082179,-0.90022,-0.054891,0.023449,-0.014123,116398
2025-02-26 00:52:25.850110,sleep,9.859323,1.082179,-0.907402,-0.055424,0.023982,-0.014922,116454
2025-02-26 00:52:25.850110,sleep,9.837775,1.086968,-0.893037,-0.055957,0.024781,-0.015988,116459
2025-02-26 00:52:25.850110,sleep,9.832987,1.084573,-0.948104,-0.055158,0.023449,-0.014123,116438
2025-02-26 00:52:25.850110,sleep,9.828198,1.089362,-0.907402,-0.055957,0.023715,-0.014389,116506
2025-02-26 00:52:25.850110,sleep,9.82341,1.06542,-0.919373,-0.056224,0.023715,-0.015721,116560
2025-02-26 00:52:25.850110,sleep,9.844957,1.091756,-0.948104,-0.055691,0.023982,-0.014123,116622
2025-02-26 00:52:25.850110,sleep,9.825804,1.082179,-0.916979,-0.055691,0.023182,-0.014655,116650
2025-02-26 00:52:25.850110,sleep,9.85214,1.067814,-0.909797,-0.055158,0.024781,-0.014655,116654
2025-02-26 00:52:25.850110,sleep,9.835381,1.079785,-0.924162,-0.05649,0.025047,-0.014922,116587
2025-02-26 00:52:25.850110,sleep,9.825804,1.058237,-0.950498,-0.055691,0.022916,-0.013856,116557
2025-02-26 00:52:25.850110,sleep,9.854534,1.089362,-0.909797,-0.055158,0.023182,-0.014389,116562
2025-02-26 00:52:25.850110,sleep,9.844957,1.06542,-0.916979,-0.055158,0.022649,-0.015988,116578
2025-02-26 00:52:25.850110,sleep,9.828198,1.077391,-0.909797,-0.055957,0.023982,-0.014922,116641
2025-02-26 00:52:25.850110,sleep,9.859323,1.079785,-0.88346,-0.054891,0.023182,-0.014922,116632
2025-02-26 00:52:25.850110,sleep,9.861717,1.072602,-0.912191,-0.055158,0.020518,-0.015721,116553
2025-02-26 00:52:25.850110,sleep,9.830592,1.063026,-0.924162,-0.055424,0.021583,-0.015188,116272
2025-02-26 00:52:25.850110,sleep,9.849746,1.074997,-0.912191,-0.055957,0.022916,-0.014922,115809
2025-02-26 00:52:25.850110,sleep,9.861717,1.084573,-0.897826,-0.056757,0.023715,-0.014922,115236
2025-02-26 00:52:25.850110,sleep,9.832987,1.072602,-0.921768,-0.05649,0.023715,-0.015988,114748
2025-02-26 00:52:25.850110,sleep,9.828198,1.074997,-0.924162,-0.055691,0.023182,-0.016254,114484
2025-02-26 00:52:25.850110,sleep,9.847352,1.074997,-0.902614,-0.055691,0.02185,-0.014922,114424
2025-02-26 00:52:25.850110,sleep,9.847352,1.070208,-0.952892,-0.055424,0.023449,-0.014922,114463
2025-02-26 00:52:25.850110,sleep,9.85214,1.082179,-0.933739,-0.054891,0.022383,-0.015455,114575
2025-02-26 00:52:25.850110,sleep,9.856929,1.082179,-0.909797,-0.054625,0.02185,-0.015455,114706
2025-02-26 00:52:25.850110,sleep,9.844957,1.077391,-0.909797,-0.055158,0.023715,-0.014655,114855
2025-02-26 00:52:25.850110,sleep,9.854534,1.06542,-0.921768,-0.054891,0.023715,-0.015988,114917
2025-02-26 00:52:25.850110,sleep,9.847352,1.053449,-0.924162,-0.055691,0.024248,-0.014389,115073
2025-02-26 00:52:25.850110,sleep,9.847352,1.077391,-0.912191,-0.055691,0.025847,-0.014922,115194
2025-02-26 00:52:25.850110,sleep,9.832987,1.077391,-0.926556,-0.055691,0.022383,-0.014123,115279
2025-02-26 00:52:25.850110,sleep,9.866506,1.084573,-0.924162,-0.055691,0.025847,-0.014389,115364
2025-02-26 00:52:25.850110,sleep,9.85214,1.084573,-0.881066,-0.055691,0.024515,-0.01359,115483
2025-02-26 00:52:25.850110,sleep,9.837775,1.063026,-0.88346,-0.054891,0.023982,-0.013856,115468
2025-02-26 00:52:25.850110,sleep,9.840169,1.060631,-0.919373,-0.054625,0.022116,-0.015455,115521
2025-02-26 00:52:25.850110,sleep,9.856929,1.072602,-0.921768,-0.055158,0.021583,-0.015988,115555
