Timestamp,Label,AccelX,AccelY,AccelZ,GyroX,GyroY,GyroZ,IR
2025-02-26 01:47:51.616876,sleep,9.708488,1.637634,-1.252167,-0.054092,0.023982,-0.01359,56694
2025-02-26 01:47:51.616876,sleep,9.691729,1.628057,-1.252167,-0.053559,0.023449,-0.01359,56748
2025-02-26 01:47:51.616876,sleep,9.679757,1.606509,-1.187524,-0.054625,0.023982,-0.014389,56749
2025-02-26 01:47:51.616876,sleep,9.694122,1.61848,-1.221043,-0.054891,0.024248,-0.014123,56800
2025-02-26 01:47:51.616876,sleep,9.708488,1.63524,-1.244985,-0.053825,0.022916,-0.014389,56753
2025-02-26 01:47:51.616876,sleep,9.67018,1.620875,-1.235408,-0.055158,0.023449,-0.014655,56743
2025-02-26 01:47:51.616876,sleep,9.682152,1.613692,-1.233014,-0.053825,0.024248,-0.014389,56754
2025-02-26 01:47:51.616876,sleep,9.684546,1.63524,-1.21386,-0.054625,0.023449,-0.014655,56757
2025-02-26 01:47:51.616876,sleep,9.667787,1.623269,-1.216254,-0.055158,0.023182,-0.014655,56752
2025-02-26 01:47:51.616876,sleep,9.68694,1.632846,-1.244985,-0.054358,0.024248,-0.014655,56789
2025-02-26 01:47:51.616876,sleep,9.679757,1.625663,-1.225831,-0.054092,0.023982,-0.014389,56754
2025-02-26 01:47:51.616876,sleep,9.677363,1.608904,-1.209072,-0.054625,0.024515,-0.01359,56876
2025-02-26 01:47:51.616876,sleep,9.689334,1.625663,-1.218649,-0.055158,0.022649,-0.015188,56891
2025-02-26 01:47:51.617615,sleep,9.684546,1.620875,-1.21386,-0.054358,0.022916,-0.014123,56952
2025-02-26 01:47:51.617615,sleep,9.706094,1.608904,-1.225831,-0.053292,0.023182,-0.014389,56949
2025-02-26 01:47:51.617615,sleep,9.701305,1.637634,-1.225831,-0.055158,0.023715,-0.01359,56971
2025-02-26 01:47:51.617615,sleep,9.684546,1.623269,-1.218649,-0.054625,0.02558,-0.014123,57041
2025-02-26 01:47:51.617615,sleep,9.667787,1.628057,-1.23062,-0.054358,0.023715,-0.013856,57067
2025-02-26 01:47:51.617615,sleep,9.689334,1.637634,-1.218649,-0.055691,0.023715,-0.014389,57065
2025-02-26 01:47:51.617615,sleep,9.718064,1.644817,-1.242591,-0.054625,0.022649,-0.014655,57059
2025-02-26 01:47:51.617615,sleep,9.684546,1.632846,-1.264138,-0.054625,0.023982,-0.014655,57036
2025-02-26 01:47:51.617615,sleep,9.703699,1.625663,-1.216254,-0.054625,0.023182,-0.014655,57058
2025-02-26 01:47:51.617615,sleep,9.689334,1.632846,-1.228225,-0.051694,0.021317,-0.016254,57110
2025-02-26 01:47:51.617615,sleep,9.689334,1.63524,-1.242591,-0.051427,0.015988,-0.016254,57109
2025-02-26 01:47:51.617615,sleep,9.689334,1.637634,-1.264138,-0.053559,0.018919,-0.013856,57120
2025-02-26 01:47:51.617615,sleep,9.708488,1.616086,-1.249773,-0.05649,0.03091,-0.013323,57050
2025-02-26 01:47:51.617615,sleep,9.696517,1.630451,-1.206678,-0.057289,0.031176,-0.014655,57018
2025-02-26 01:47:51.617615,sleep,9.701305,1.623269,-1.21386,-0.056224,0.022916,-0.016787,56906
2025-02-26 01:47:51.617615,sleep,9.691729,1.632846,-1.206678,-0.055424,0.015721,-0.018119,56690
2025-02-26 01:47:51.617615,sleep,9.679757,1.644817,-1.271321,-0.055691,0.017587,-0.018652,56484
2025-02-26 01:47:51.617615,sleep,9.665392,1.642422,-1.249773,-0.055424,0.019718,-0.018652,56311
2025-02-26 01:47:51.617615,sleep,9.665392,1.644817,-1.252167,-0.055424,0.020518,-0.015455,56112
2025-02-26 01:47:51.617615,sleep,9.682152,1.632846,-1.237802,-0.055691,0.02185,-0.015988,56041
2025-02-26 01:47:51.617615,sleep,9.701305,1.620875,-1.218649,-0.055158,0.025847,-0.015988,56047
2025-02-26 01:47:51.617615,sleep,9.679757,1.625663,-1.233014,-0.053559,0.022383,-0.014389,56109
2025-02-26 01:47:51.617615,sleep,9.682152,1.628057,-1.235408,-0.054358,0.021583,-0.014389,56141
2025-02-26 01:47:51.617615,sleep,9.679757,1.640028,-1.247379,-0.053825,0.024248,-0.014655,56041
2025-02-26 01:47:51.617615,sleep,9.667787,1.632846,-1.244985,-0.054625,0.02558,-0.014389,56252
2025-02-26 01:47:51.617615,sleep,9.691729,1.608904,-1.209072,-0.055691,0.024248,-0.014655,56325
2025-02-26 01:47:51.617615,sleep,9.691729,1.63524,-1.216254,-0.054092,0.025847,-0.015188,56395
2025-02-26 01:47:51.617615,sleep,9.672575,1.63524,-1.221043,-0.054891,0.020518,-0.015455,56331
2025-02-26 01:47:51.617615,sleep,9.662998,1.632846,-1.209072,-0.054625,0.021317,-0.014922,56331
2025-02-26 01:47:51.617615,sleep,9.667787,1.640028,-1.23062,-0.054092,0.024781,-0.014655,56325
2025-02-26 01:47:51.617615,sleep,9.655815,1.628057,-1.252167,-0.053292,0.023449,-0.014389,56318
2025-02-26 01:47:51.617615,sleep,9.667787,1.628057,-1.233014,-0.055158,0.024515,-0.013323,56383
2025-02-26 01:47:51.617615,sleep,9.706094,1.632846,-1.233014,-0.057289,0.027179,-0.01279,56425
2025-02-26 01:47:51.617615,sleep,9.694122,1.625663,-1.247379,-0.056757,0.028245,-0.013323,56454
2025-02-26 01:47:51.617615,sleep,9.694122,1.644817,-1.211466,-0.055424,0.023182,-0.014123,56492
2025-02-26 01:47:51.617615,sleep,9.701305,1.61848,-1.223437,-0.054358,0.022116,-0.013856,56443
2025-02-26 01:47:51.617615,sleep,9.689334,1.640028,-1.209072,-0.054092,0.022649,-0.014655,56390
2025-02-26 01:47:51.617615,sleep,9.68694,1.644817,-1.264138,-0.054092,0.022116,-0.015455,56350
2025-02-26 01:47:51.617615,sleep,9.679757,1.628057,-1.225831,-0.054092,0.021051,-0.015455,56337
2025-02-26 01:47:51.617615,sleep,9.691729,1.63524,-1.235408,-0.054092,0.023182,-0.014922,56298
2025-02-26 01:47:51.617615,sleep,9.689334,1.61848,-1.252167,-0.053559,0.02185,-0.014655,56288
2025-02-26 01:47:51.617615,sleep,9.710882,1.640028,-1.223437,-0.053825,0.02185,-0.014123,56301
2025-02-26 01:47:51.617615,sleep,9.696517,1.620875,-1.194707,-0.055158,0.023982,-0.013856,56370
2025-02-26 01:47:51.617615,sleep,9.698911,1.630451,-1.216254,-0.055158,0.025847,-0.013856,56298
2025-02-26 01:47:51.617615,sleep,9.694122,1.644817,-1.21386,-0.056224,0.025047,-0.014123,56511
2025-02-26 01:47:51.617615,sleep,9.698911,1.637634,-1.221043,-0.054625,0.023982,-0.01359,56534
2025-02-26 01:47:51.617615,sleep,9.679757,1.640028,-1.23062,-0.054891,0.023182,-0.013323,56542
2025-02-26 01:47:51.617615,sleep,9.708488,1.63524,-1.233014,-0.054625,0.02558,-0.014655,56552
2025-02-26 01:47:51.617615,sleep,9.682152,1.628057,-1.235408,-0.053559,0.024781,-0.014123,56575
2025-02-26 01:47:51.617615,sleep,9.674969,1.632846,-1.218649,-0.054625,0.023982,-0.01359,56659
2025-02-26 01:47:51.617615,sleep,9.672575,1.63524,-1.228225,-0.055424,0.024248,-0.013856,56738
2025-02-26 01:47:51.617615,sleep,9.701305,1.608904,-1.218649,-0.055424,0.025047,-0.013856,56744
2025-02-26 01:47:51.617615,sleep,9.677363,1.640028,-1.266533,-0.054891,0.023182,-0.014389,56728
2025-02-26 01:47:51.617615,sleep,9.698911,1.625663,-1.244985,-0.054625,0.022916,-0.01359,56686
2025-02-26 01:47:51.617615,sleep,9.701305,1.623269,-1.237802,-0.054625,0.023449,-0.014123,56668
2025-02-26 01:47:51.617615,sleep,9.665392,1.623269,-1.233014,-0.055158,0.023449,-0.014123,56704
2025-02-26 01:47:51.617615,sleep,9.696517,1.616086,-1.235408,-0.054358,0.024781,-0.014123,56743
2025-02-26 01:47:51.617615,sleep,9.677363,1.623269,-1.252167,-0.055158,0.024515,-0.014389,56779
2025-02-26 01:47:51.617615,sleep,9.691729,1.632846,-1.25935,-0.055424,0.023982,-0.014389,56738
2025-02-26 01:47:51.617615,sleep,9.682152,1.63524,-1.221043,-0.055691,0.023182,-0.014123,56728
2025-02-26 01:47:51.617615,sleep,9.696517,1.647211,-1.233014,-0.054891,0.024781,-0.014389,56728
2025-02-26 01:47:51.617615,sleep,9.689334,1.63524,-1.221043,-0.054625,0.024781,-0.014389,56737
2025-02-26 01:47:51.618187,sleep,9.674969,1.630451,-1.21386,-0.054891,0.024515,-0.013856,56741
2025-02-26 01:47:51.618187,sleep,9.694122,1.632846,-1.242591,-0.054625,0.024248,-0.014123,56756
2025-02-26 01:47:51.618187,sleep,9.682152,1.637634,-1.235408,-0.054891,0.023715,-0.014389,56793
2025-02-26 01:47:51.618187,sleep,9.682152,1.642422,-1.233014,-0.054358,0.024515,-0.014123,56825
2025-02-26 01:47:51.618187,sleep,9.682152,1.625663,-1.235408,-0.054092,0.025314,-0.013856,56908
2025-02-26 01:47:51.618187,sleep,9.682152,1.616086,-1.228225,-0.055158,0.025047,-0.013323,56924
2025-02-26 01:47:51.618187,sleep,9.694122,1.63524,-1.244985,-0.055957,0.025314,-0.014123,56967
2025-02-26 01:47:51.618187,sleep,9.682152,1.630451,-1.237802,-0.055424,0.024248,-0.01359,56997
2025-02-26 01:47:51.618187,sleep,9.68694,1.616086,-1.209072,-0.055424,0.023982,-0.01359,57043
2025-02-26 01:47:51.618187,sleep,9.698911,1.640028,-1.23062,-0.054358,0.023715,-0.014389,57120
2025-02-26 01:47:51.618187,sleep,9.696517,1.637634,-1.218649,-0.054625,0.022649,-0.014922,57206
2025-02-26 01:47:51.618187,sleep,9.703699,1.61848,-1.209072,-0.051694,0.020518,-0.014922,57232
2025-02-26 01:47:51.618187,sleep,9.682152,1.632846,-1.237802,-0.053292,0.018119,-0.015455,57204
2025-02-26 01:47:51.618187,sleep,9.660604,1.630451,-1.25935,-0.055424,0.025314,-0.01359,57166
2025-02-26 01:47:51.618187,sleep,9.674969,1.644817,-1.256956,-0.057822,0.033841,-0.01359,57169
2025-02-26 01:47:51.618187,sleep,9.708488,1.640028,-1.204283,-0.058622,0.029844,-0.014123,57139
2025-02-26 01:47:51.618187,sleep,9.665392,1.628057,-1.206678,-0.056757,0.021583,-0.017587,57024
2025-02-26 01:47:51.618187,sleep,9.672575,1.630451,-1.240196,-0.055957,0.015455,-0.017054,56907
2025-02-26 01:47:51.618187,sleep,9.684546,1.632846,-1.23062,-0.054891,0.020251,-0.018119,56691
2025-02-26 01:47:51.618187,sleep,9.698911,1.632846,-1.221043,-0.055691,0.021051,-0.017054,56483
2025-02-26 01:47:51.618187,sleep,9.667787,1.601721,-1.225831,-0.056224,0.021583,-0.016254,56341
2025-02-26 01:47:51.618187,sleep,9.67018,1.625663,-1.23062,-0.055957,0.023982,-0.013856,56276
2025-02-26 01:47:51.618187,sleep,9.694122,1.644817,-1.225831,-0.053825,0.026113,-0.015988,56288
2025-02-26 01:47:51.618187,sleep,9.679757,1.608904,-1.225831,-0.054891,0.020784,-0.014389,56282
2025-02-26 01:47:51.618187,sleep,9.701305,1.632846,-1.235408,-0.055158,0.024515,-0.01359,56349
2025-02-26 01:47:51.618187,sleep,9.67018,1.63524,-1.221043,-0.054891,0.02558,-0.014389,56477
2025-02-26 01:47:51.618187,sleep,9.68694,1.63524,-1.223437,-0.055691,0.02558,-0.013856,56560
2025-02-26 01:47:51.618187,sleep,9.691729,1.630451,-1.25935,-0.054891,0.026113,-0.014389,56588
2025-02-26 01:47:51.618187,sleep,9.710882,1.625663,-1.206678,-0.054358,0.024248,-0.014655,56598
2025-02-26 01:47:51.618187,sleep,9.684546,1.616086,-1.242591,-0.054625,0.021583,-0.014389,56573
2025-02-26 01:47:51.618187,sleep,9.67018,1.63524,-1.244985,-0.054891,0.023449,-0.013856,56588
2025-02-26 01:47:51.618187,sleep,9.689334,1.632846,-1.228225,-0.054625,0.02558,-0.013856,56688
2025-02-26 01:47:51.618187,sleep,9.713276,1.637634,-1.233014,-0.054891,0.025314,-0.012257,56782
2025-02-26 01:47:51.618187,sleep,9.682152,1.620875,-1.240196,-0.056757,0.025314,-0.01279,56828
2025-02-26 01:47:51.618187,sleep,9.694122,1.620875,-1.21386,-0.056224,0.029844,-0.012524,56845
2025-02-26 01:47:51.618187,sleep,9.698911,1.620875,-1.201889,-0.056224,0.029044,-0.013323,56812
2025-02-26 01:47:51.618187,sleep,9.679757,1.628057,-1.211466,-0.055957,0.022916,-0.013856,56778
2025-02-26 01:47:51.618187,sleep,9.682152,1.637634,-1.204283,-0.055957,0.022916,-0.014123,56754
2025-02-26 01:47:51.618187,sleep,9.68694,1.628057,-1.221043,-0.055158,0.024781,-0.014123,56737
2025-02-26 01:47:51.618187,sleep,9.691729,1.644817,-1.240196,-0.054092,0.023715,-0.014389,56751
2025-02-26 01:47:51.618187,sleep,9.696517,1.632846,-1.240196,-0.054358,0.022116,-0.014655,56761
2025-02-26 01:47:51.618187,sleep,9.701305,1.63524,-1.249773,-0.054891,0.024781,-0.014123,56701
2025-02-26 01:47:51.618187,sleep,9.684546,1.63524,-1.225831,-0.053825,0.022649,-0.014389,56708
2025-02-26 01:47:51.618187,sleep,9.677363,1.632846,-1.237802,-0.054891,0.023715,-0.014389,56759
2025-02-26 01:47:51.618187,sleep,9.684546,1.63524,-1.218649,-0.054891,0.025314,-0.013856,56746
2025-02-26 01:47:51.618187,sleep,9.684546,1.625663,-1.211466,-0.055691,0.026646,-0.01279,56723
2025-02-26 01:47:51.618187,sleep,9.713276,1.625663,-1.216254,-0.054625,0.026646,-0.01359,56781
2025-02-26 01:47:51.618187,sleep,9.701305,1.63524,-1.216254,-0.055158,0.024781,-0.014123,56769
2025-02-26 01:47:51.618187,sleep,9.703699,1.63524,-1.211466,-0.054625,0.023982,-0.014389,56746
2025-02-26 01:47:51.618187,sleep,9.677363,1.63524,-1.194707,-0.055158,0.025314,-0.014389,56852
2025-02-26 01:47:51.618187,sleep,9.689334,1.644817,-1.223437,-0.054891,0.025047,-0.014389,56884
2025-02-26 01:47:51.618187,sleep,9.677363,1.61848,-1.223437,-0.055424,0.02558,-0.014123,56892
2025-02-26 01:47:51.618187,sleep,9.674969,1.659182,-1.223437,-0.054358,0.024781,-0.01359,56918
2025-02-26 01:47:51.618187,sleep,9.672575,1.632846,-1.211466,-0.055158,0.025847,-0.013057,56969
2025-02-26 01:47:51.618187,sleep,9.682152,1.623269,-1.21386,-0.054358,0.024515,-0.01359,57029
2025-02-26 01:47:51.618187,sleep,9.691729,1.630451,-1.21386,-0.054891,0.024781,-0.013856,57042
2025-02-26 01:47:51.618187,sleep,9.694122,1.651999,-1.228225,-0.054358,0.025314,-0.012524,57092
2025-02-26 01:47:51.618187,sleep,9.713276,1.647211,-1.225831,-0.054891,0.023715,-0.014389,57035
2025-02-26 01:47:51.618187,sleep,9.694122,1.628057,-1.216254,-0.055158,0.022916,-0.013856,57058
2025-02-26 01:47:51.618187,sleep,9.682152,1.628057,-1.21386,-0.054358,0.025314,-0.01359,56998
2025-02-26 01:47:51.618187,sleep,9.689334,1.625663,-1.23062,-0.055957,0.02558,-0.013856,57023
2025-02-26 01:47:51.618187,sleep,9.715671,1.616086,-1.21386,-0.055158,0.025314,-0.014389,57028
2025-02-26 01:47:51.618187,sleep,9.696517,1.63524,-1.225831,-0.054358,0.022649,-0.014922,57080
2025-02-26 01:47:51.618187,sleep,9.677363,1.616086,-1.23062,-0.054358,0.024515,-0.014123,57095
2025-02-26 01:47:51.618187,sleep,9.684546,1.628057,-1.216254,-0.054358,0.025314,-0.013856,57026
2025-02-26 01:47:51.618187,sleep,9.68694,1.623269,-1.204283,-0.055691,0.025847,-0.013856,57018
2025-02-26 01:47:51.618187,sleep,9.68694,1.630451,-1.247379,-0.055158,0.02558,-0.01359,57019
2025-02-26 01:47:51.618187,sleep,9.696517,1.625663,-1.240196,-0.056224,0.02558,-0.014123,57001
2025-02-26 01:47:51.618187,sleep,9.689334,1.637634,-1.244985,-0.055424,0.02558,-0.014123,56993
2025-02-26 01:47:51.618187,sleep,9.696517,1.620875,-1.23062,-0.055158,0.023982,-0.014389,57023
2025-02-26 01:47:51.618187,sleep,9.725247,1.623269,-1.221043,-0.054358,0.024248,-0.014655,57051
2025-02-26 01:47:51.618187,sleep,9.67018,1.625663,-1.201889,-0.053026,0.019718,-0.015188,57127
2025-02-26 01:47:51.618187,sleep,9.679757,1.644817,-1.199495,-0.053559,0.019718,-0.014123,57166
2025-02-26 01:47:51.618187,sleep,9.713276,1.616086,-1.221043,-0.053559,0.022383,-0.015188,57154
2025-02-26 01:47:51.618187,sleep,9.682152,1.632846,-1.25935,-0.055158,0.02558,-0.012524,57147
2025-02-26 01:47:51.618187,sleep,9.698911,1.620875,-1.209072,-0.057822,0.031709,-0.013057,57105
2025-02-26 01:47:51.618187,sleep,9.706094,1.625663,-1.216254,-0.057023,0.027979,-0.014123,57102
2025-02-26 01:47:51.618187,sleep,9.713276,1.620875,-1.201889,-0.055691,0.018119,-0.017054,56988
2025-02-26 01:47:51.618187,sleep,9.696517,1.608904,-1.225831,-0.055158,0.014655,-0.018119,56802
2025-02-26 01:47:51.618187,sleep,9.718064,1.640028,-1.233014,-0.055158,0.01732,-0.018386,56604
2025-02-26 01:47:51.618187,sleep,9.694122,1.613692,-1.249773,-0.055691,0.020518,-0.017853,56345
2025-02-26 01:47:51.618187,sleep,9.691729,1.637634,-1.237802,-0.055424,0.018386,-0.016787,56116
2025-02-26 01:47:51.618187,sleep,9.677363,1.628057,-1.235408,-0.054358,0.019718,-0.016254,56006
2025-02-26 01:47:51.618187,sleep,9.677363,1.632846,-1.235408,-0.052493,0.023449,-0.016254,56014
2025-02-26 01:47:51.618187,sleep,9.674969,1.632846,-1.244985,-0.054358,0.02185,-0.016787,56025
2025-02-26 01:47:51.618187,sleep,9.682152,1.608904,-1.254562,-0.054625,0.022649,-0.015188,56169
2025-02-26 01:47:51.618187,sleep,9.701305,1.620875,-1.252167,-0.054891,0.025847,-0.014123,56242
2025-02-26 01:47:51.618187,sleep,9.689334,1.620875,-1.228225,-0.054625,0.025847,-0.015721,56247
2025-02-26 01:47:51.618187,sleep,9.672575,1.625663,-1.225831,-0.055424,0.022916,-0.013856,56303
2025-02-26 01:47:51.618187,sleep,9.701305,1.640028,-1.237802,-0.052493,0.022916,-0.015455,56285
2025-02-26 01:47:51.618187,sleep,9.674969,1.630451,-1.235408,-0.055424,0.020518,-0.014123,56263
2025-02-26 01:47:51.618187,sleep,9.691729,1.630451,-1.23062,-0.053825,0.025847,-0.013856,56243
2025-02-26 01:47:51.618187,sleep,9.706094,1.613692,-1.223437,-0.053559,0.023715,-0.014922,56277
2025-02-26 01:47:51.618187,sleep,9.667787,1.630451,-1.23062,-0.054891,0.021317,-0.015455,56335
2025-02-26 01:47:51.618187,sleep,9.677363,1.63524,-1.228225,-0.055957,0.025314,-0.014389,56397
2025-02-26 01:47:51.618187,sleep,9.689334,1.630451,-1.237802,-0.055957,0.028778,-0.01359,56516
2025-02-26 01:47:51.618187,sleep,9.68694,1.632846,-1.216254,-0.055158,0.025047,-0.013856,56528
2025-02-26 01:47:51.618187,sleep,9.682152,1.63524,-1.204283,-0.05649,0.021051,-0.014655,56523
2025-02-26 01:47:51.618187,sleep,9.696517,1.640028,-1.223437,-0.054625,0.02185,-0.014389,56488
2025-02-26 01:47:51.618187,sleep,9.701305,1.630451,-1.237802,-0.053825,0.023449,-0.014655,56490
2025-02-26 01:47:51.618187,sleep,9.689334,1.620875,-1.21386,-0.054358,0.023449,-0.014123,56514
2025-02-26 01:47:51.618187,sleep,9.682152,1.640028,-1.209072,-0.054625,0.022383,-0.014922,56545
2025-02-26 01:47:51.618187,sleep,9.68694,1.61848,-1.225831,-0.053559,0.022916,-0.014655,56588
2025-02-26 01:47:51.618187,sleep,9.660604,1.61848,-1.228225,-0.053026,0.021317,-0.015455,56540
2025-02-26 01:47:51.618187,sleep,9.67018,1.628057,-1.225831,-0.054625,0.022916,-0.014655,56564
2025-02-26 01:47:51.618187,sleep,9.682152,1.628057,-1.237802,-0.054092,0.024781,-0.014123,56538
2025-02-26 01:47:51.618187,sleep,9.689334,1.632846,-1.199495,-0.054358,0.023449,-0.014123,56563
2025-02-26 01:47:51.618187,sleep,9.708488,1.623269,-1.225831,-0.053825,0.023182,-0.014389,56613
2025-02-26 01:47:51.618187,sleep,9.696517,1.61848,-1.228225,-0.053292,0.023449,-0.013856,56660
2025-02-26 01:47:51.618187,sleep,9.677363,1.608904,-1.23062,-0.054358,0.023715,-0.013323,56697
2025-02-26 01:47:51.618187,sleep,9.68694,1.630451,-1.228225,-0.053825,0.022916,-0.014922,56654
2025-02-26 01:47:51.618187,sleep,9.682152,1.637634,-1.218649,-0.054358,0.023182,-0.014389,56651
2025-02-26 01:47:51.618187,sleep,9.706094,1.632846,-1.23062,-0.054625,0.024515,-0.014655,56674
2025-02-26 01:47:51.618187,sleep,9.679757,1.61848,-1.242591,-0.053825,0.024515,-0.013856,56699
2025-02-26 01:47:51.618187,sleep,9.682152,1.63524,-1.216254,-0.053559,0.024515,-0.014655,56694
2025-02-26 01:47:51.618187,sleep,9.677363,1.632846,-1.256956,-0.053825,0.024248,-0.014389,56719
2025-02-26 01:47:51.618187,sleep,9.68694,1.630451,-1.256956,-0.053825,0.023449,-0.013856,56731
2025-02-26 01:47:51.618187,sleep,9.68694,1.640028,-1.225831,-0.054625,0.023982,-0.014655,56819
2025-02-26 01:47:51.618187,sleep,9.68694,1.63524,-1.218649,-0.054092,0.024248,-0.01359,56822
2025-02-26 01:47:51.618187,sleep,9.667787,1.63524,-1.233014,-0.054092,0.024781,-0.014389,56867
2025-02-26 01:47:51.618187,sleep,9.694122,1.628057,-1.225831,-0.053559,0.022649,-0.015188,56896
2025-02-26 01:47:51.618187,sleep,9.694122,1.628057,-1.235408,-0.053559,0.022916,-0.014922,56909
2025-02-26 01:47:51.618187,sleep,9.706094,1.647211,-1.218649,-0.054092,0.023982,-0.014389,56949
2025-02-26 01:47:51.618187,sleep,9.679757,1.61848,-1.225831,-0.054358,0.023982,-0.014123,56996
2025-02-26 01:47:51.618187,sleep,9.684546,1.628057,-1.237802,-0.054358,0.023982,-0.014655,56975
2025-02-26 01:47:51.618187,sleep,9.677363,1.61848,-1.249773,-0.053559,0.02558,-0.014655,56932
2025-02-26 01:47:51.618187,sleep,9.694122,1.628057,-1.235408,-0.054358,0.024781,-0.014389,56932
2025-02-26 01:47:51.618187,sleep,9.682152,1.620875,-1.225831,-0.054625,0.02558,-0.013323,57015
2025-02-26 01:47:51.618187,sleep,9.689334,1.640028,-1.209072,-0.054625,0.024515,-0.014389,57038
2025-02-26 01:47:51.618187,sleep,9.694122,1.63524,-1.237802,-0.053825,0.023715,-0.013323,57113
2025-02-26 01:47:51.618187,sleep,9.694122,1.63524,-1.23062,-0.054358,0.023182,-0.014655,57091
2025-02-26 01:47:51.618187,sleep,9.710882,1.620875,-1.206678,-0.05196,0.022116,-0.016254,57166
2025-02-26 01:47:51.618187,sleep,9.679757,1.644817,-1.201889,-0.052227,0.018652,-0.016521,57190
2025-02-26 01:47:51.618187,sleep,9.674969,1.630451,-1.233014,-0.053559,0.019452,-0.014655,57204
2025-02-26 01:47:51.618187,sleep,9.703699,1.623269,-1.256956,-0.05649,0.028511,-0.01359,57169
2025-02-26 01:47:51.618187,sleep,9.68694,1.623269,-1.216254,-0.057023,0.030643,-0.014389,57102
2025-02-26 01:47:51.618187,sleep,9.713276,1.630451,-1.209072,-0.057023,0.022116,-0.015988,56937
2025-02-26 01:47:51.618187,sleep,9.68694,1.63524,-1.228225,-0.055158,0.015188,-0.016787,56719
2025-02-26 01:47:51.618187,sleep,9.672575,1.608904,-1.233014,-0.055957,0.01732,-0.018652,56538
2025-02-26 01:47:51.618187,sleep,9.684546,1.632846,-1.216254,-0.056224,0.020784,-0.017587,56353
2025-02-26 01:47:51.618187,sleep,9.667787,1.625663,-1.228225,-0.055424,0.019985,-0.016521,56223
2025-02-26 01:47:51.618187,sleep,9.674969,1.625663,-1.264138,-0.055691,0.022383,-0.014389,56116
2025-02-26 01:47:51.618187,sleep,9.682152,1.623269,-1.244985,-0.054625,0.02558,-0.015455,56053
2025-02-26 01:47:51.618187,sleep,9.679757,1.613692,-1.237802,-0.054358,0.022116,-0.015188,56073
2025-02-26 01:47:51.618187,sleep,9.667787,1.63524,-1.225831,-0.053292,0.021583,-0.01359,56084
2025-02-26 01:47:51.618187,sleep,9.689334,1.628057,-1.23062,-0.054891,0.023982,-0.014655,56118
2025-02-26 01:47:51.618187,sleep,9.679757,1.640028,-1.209072,-0.054092,0.026113,-0.014123,56161
2025-02-26 01:47:51.618187,sleep,9.708488,1.63524,-1.237802,-0.054358,0.025314,-0.013856,56259
2025-02-26 01:47:51.618187,sleep,9.722853,1.647211,-1.204283,-0.054358,0.024515,-0.015455,56267
2025-02-26 01:47:51.618187,sleep,9.68694,1.647211,-1.233014,-0.054625,0.020784,-0.015455,56238
2025-02-26 01:47:51.618187,sleep,9.677363,1.630451,-1.249773,-0.054625,0.021583,-0.014922,56252
2025-02-26 01:47:51.618187,sleep,9.679757,1.630451,-1.249773,-0.053559,0.024515,-0.014389,56293
2025-02-26 01:47:51.618187,sleep,9.679757,1.608904,-1.211466,-0.05276,0.023449,-0.014123,56290
2025-02-26 01:47:51.618187,sleep,9.691729,1.642422,-1.223437,-0.055158,0.023715,-0.013856,56429
2025-02-26 01:47:51.618187,sleep,9.689334,1.625663,-1.225831,-0.055691,0.027179,-0.013856,56504
2025-02-26 01:47:51.618187,sleep,9.710882,1.620875,-1.21386,-0.056224,0.028245,-0.013856,56497
2025-02-26 01:47:51.618187,sleep,9.674969,1.63524,-1.228225,-0.055424,0.023449,-0.014389,56544
2025-02-26 01:47:51.618187,sleep,9.667787,1.628057,-1.223437,-0.054891,0.021051,-0.013323,56473
2025-02-26 01:47:51.618187,sleep,9.684546,1.628057,-1.228225,-0.054625,0.022649,-0.01359,56397
2025-02-26 01:47:51.618187,sleep,9.672575,1.632846,-1.221043,-0.053292,0.024248,-0.014389,56355
2025-02-26 01:47:51.618187,sleep,9.667787,1.632846,-1.211466,-0.054092,0.021051,-0.014123,56337
2025-02-26 01:47:51.618187,sleep,9.674969,1.637634,-1.235408,-0.053825,0.023982,-0.014123,56344
2025-02-26 01:47:51.618187,sleep,9.68694,1.628057,-1.240196,-0.054092,0.024515,-0.014655,56408
2025-02-26 01:47:51.618187,sleep,9.689334,1.616086,-1.254562,-0.054891,0.022916,-0.014389,56450
2025-02-26 01:47:51.618187,sleep,9.672575,1.620875,-1.247379,-0.054358,0.023982,-0.014389,56441
2025-02-26 01:47:51.618187,sleep,9.68694,1.63524,-1.247379,-0.055158,0.025314,-0.013856,56462
2025-02-26 01:47:51.618187,sleep,9.701305,1.630451,-1.242591,-0.055424,0.02558,-0.014922,56574
2025-02-26 01:47:51.618187,sleep,9.679757,1.640028,-1.218649,-0.054092,0.023982,-0.013323,56453
2025-02-26 01:47:51.618187,sleep,9.677363,1.61848,-1.242591,-0.054358,0.023182,-0.013856,56438
2025-02-26 01:47:51.618187,sleep,9.68694,1.623269,-1.218649,-0.053559,0.022916,-0.014123,56452
2025-02-26 01:47:51.618187,sleep,9.679757,1.63524,-1.223437,-0.054625,0.024515,-0.013323,56485
2025-02-26 01:47:51.618187,sleep,9.694122,1.637634,-1.204283,-0.054891,0.02558,-0.014123,56530
2025-02-26 01:47:51.618187,sleep,9.691729,1.625663,-1.237802,-0.054891,0.025047,-0.013856,56609
2025-02-26 01:47:51.618187,sleep,9.672575,1.63524,-1.23062,-0.055158,0.025047,-0.014389,56634
2025-02-26 01:47:51.618187,sleep,9.68694,1.642422,-1.23062,-0.054891,0.025314,-0.013323,56485
2025-02-26 01:47:51.618187,sleep,9.682152,1.644817,-1.235408,-0.054625,0.023182,-0.01359,56670
2025-02-26 01:47:51.618187,sleep,9.696517,1.625663,-1.221043,-0.054625,0.024515,-0.014123,56700
2025-02-26 01:47:51.618187,sleep,9.696517,1.632846,-1.221043,-0.054358,0.023182,-0.014655,56738
2025-02-26 01:47:51.618187,sleep,9.694122,1.625663,-1.233014,-0.055158,0.02558,-0.014922,56791
2025-02-26 01:47:51.618187,sleep,9.684546,1.620875,-1.228225,-0.055424,0.024248,-0.014655,56838
2025-02-26 01:47:51.618187,sleep,9.689334,1.630451,-1.218649,-0.054891,0.024781,-0.013856,56829
2025-02-26 01:47:51.618187,sleep,9.677363,1.628057,-1.23062,-0.054625,0.025047,-0.015188,56823
2025-02-26 01:47:51.618187,sleep,9.682152,1.623269,-1.240196,-0.055158,0.025847,-0.014389,56759
2025-02-26 01:47:51.618187,sleep,9.706094,1.613692,-1.218649,-0.055158,0.024515,-0.014123,56751
2025-02-26 01:47:51.618187,sleep,9.696517,1.628057,-1.211466,-0.054358,0.025047,-0.014389,56788
2025-02-26 01:47:51.618187,sleep,9.698911,1.616086,-1.244985,-0.053292,0.024515,-0.013856,56816
2025-02-26 01:47:51.618187,sleep,9.689334,1.620875,-1.225831,-0.054092,0.024515,-0.014123,56888
2025-02-26 01:47:51.618187,sleep,9.679757,1.628057,-1.223437,-0.055158,0.024248,-0.013323,56859
2025-02-26 01:47:51.618187,sleep,9.655815,1.628057,-1.218649,-0.055158,0.023982,-0.013323,56846
2025-02-26 01:47:51.618187,sleep,9.694122,1.616086,-1.240196,-0.054891,0.025314,-0.014389,56867
2025-02-26 01:47:51.618187,sleep,9.689334,1.632846,-1.223437,-0.055691,0.026113,-0.013323,56852
2025-02-26 01:47:51.618187,sleep,9.684546,1.63524,-1.221043,-0.054625,0.024515,-0.013856,56878
2025-02-26 01:47:51.618187,sleep,9.684546,1.625663,-1.240196,-0.054891,0.023182,-0.014123,56851
2025-02-26 01:47:51.618187,sleep,9.715671,1.616086,-1.249773,-0.055424,0.023982,-0.01279,56898
2025-02-26 01:47:51.618187,sleep,9.691729,1.611298,-1.21386,-0.054891,0.023982,-0.014123,57011
2025-02-26 01:47:51.618187,sleep,9.689334,1.628057,-1.199495,-0.051694,0.021583,-0.015721,57037
2025-02-26 01:47:51.618187,sleep,9.662998,1.630451,-1.23062,-0.050894,0.018919,-0.017054,57044
2025-02-26 01:47:51.618187,sleep,9.677363,1.63524,-1.256956,-0.054891,0.022649,-0.014389,57121
2025-02-26 01:47:51.618187,sleep,9.696517,1.628057,-1.240196,-0.056757,0.03091,-0.013057,57108
2025-02-26 01:47:51.618187,sleep,9.691729,1.642422,-1.221043,-0.057822,0.031443,-0.01359,57054
2025-02-26 01:47:51.618187,sleep,9.689334,1.608904,-1.199495,-0.05649,0.023715,-0.015188,56996
2025-02-26 01:47:51.618187,sleep,9.672575,1.637634,-1.221043,-0.054891,0.017853,-0.017054,56804
2025-02-26 01:47:51.618187,sleep,9.682152,1.637634,-1.225831,-0.055424,0.018119,-0.016787,56698
2025-02-26 01:47:51.618187,sleep,9.684546,1.644817,-1.206678,-0.056224,0.019452,-0.017054,56529
2025-02-26 01:47:51.618187,sleep,9.68694,1.61848,-1.233014,-0.05649,0.019185,-0.017054,56332
2025-02-26 01:47:51.618187,sleep,9.691729,1.642422,-1.249773,-0.054891,0.023715,-0.015188,56271
2025-02-26 01:47:51.618187,sleep,9.674969,1.640028,-1.240196,-0.053559,0.026646,-0.015188,56193
2025-02-26 01:47:51.618187,sleep,9.691729,1.611298,-1.235408,-0.054092,0.021317,-0.014922,56216
2025-02-26 01:47:51.618187,sleep,9.682152,1.644817,-1.23062,-0.055158,0.022916,-0.013323,56292
2025-02-26 01:47:51.618187,sleep,9.691729,1.63524,-1.237802,-0.054625,0.025847,-0.013856,56380
2025-02-26 01:47:51.618187,sleep,9.682152,1.632846,-1.244985,-0.055158,0.02638,-0.014655,56476
2025-02-26 01:47:51.618187,sleep,9.68694,1.625663,-1.233014,-0.056224,0.024248,-0.012524,56565
2025-02-26 01:47:51.618187,sleep,9.708488,1.630451,-1.216254,-0.054891,0.026646,-0.013856,56474
2025-02-26 01:47:51.618187,sleep,9.689334,1.63524,-1.23062,-0.053292,0.021051,-0.015455,56433
2025-02-26 01:47:51.618187,sleep,9.674969,1.608904,-1.247379,-0.054625,0.021583,-0.014123,56427
2025-02-26 01:47:51.618187,sleep,9.689334,1.628057,-1.235408,-0.054358,0.025847,-0.013057,56419
2025-02-26 01:47:51.618187,sleep,9.691729,1.630451,-1.237802,-0.054358,0.026113,-0.013323,56446
2025-02-26 01:47:51.618187,sleep,9.677363,1.637634,-1.235408,-0.054891,0.023982,-0.013057,56504
2025-02-26 01:47:51.618187,sleep,9.694122,1.630451,-1.23062,-0.056224,0.027979,-0.013057,56601
2025-02-26 01:47:51.618187,sleep,9.696517,1.630451,-1.209072,-0.056757,0.028778,-0.013057,56683
2025-02-26 01:47:51.618187,sleep,9.694122,1.649605,-1.204283,-0.055424,0.024781,-0.013856,56705
2025-02-26 01:47:51.618187,sleep,9.674969,1.625663,-1.225831,-0.054891,0.021051,-0.01359,56504
2025-02-26 01:47:51.618187,sleep,9.698911,1.620875,-1.240196,-0.054625,0.025047,-0.01359,56699
2025-02-26 01:47:51.618187,sleep,9.684546,1.644817,-1.23062,-0.054092,0.02558,-0.01359,56666
2025-02-26 01:47:51.618187,sleep,9.694122,1.649605,-1.228225,-0.055158,0.022383,-0.015455,56666
