Timestamp,Label,AccelX,AccelY,AccelZ,GyroX,GyroY,GyroZ,IR
2025-02-26 01:42:00.155572,sleep,10.04128,0.311246,1.934515,-0.054358,0.003198,-0.018919,134159
2025-02-26 01:42:00.155572,sleep,10.09156,0.339977,1.87466,-0.055424,0.010925,-0.018386,134132
2025-02-26 01:42:00.155572,sleep,10.0317,0.325611,1.963245,-0.058089,0.046364,-0.004796,134055
2025-02-26 01:42:00.155572,sleep,10.05804,0.512359,1.82917,-0.058888,0.014123,-0.015721,133898
2025-02-26 01:42:00.155572,sleep,10.02692,0.512359,1.968034,-0.03091,-0.001066,-0.022916,133786
2025-02-26 01:42:00.155572,sleep,10.00297,0.339977,2.037466,-0.002132,0.007727,-0.020251,133844
2025-02-26 01:42:00.155572,sleep,10.02692,0.31364,1.939303,0.011991,0.008793,-0.016254,133718
2025-02-26 01:42:00.155572,sleep,10.07241,0.198719,1.922544,0.005063,0.01359,-0.012524,132832
2025-02-26 01:42:00.155572,sleep,10.06044,-0.059855,2.054225,-0.022649,0.045299,-0.006395,134370
2025-02-26 01:42:00.155572,sleep,10.02931,0.222661,1.958457,-0.050361,0.005862,-0.023449,133977
2025-02-26 01:42:00.155572,sleep,10.02692,0.282516,1.94888,-0.053825,0.005063,-0.022383,129626
2025-02-26 01:42:00.155572,sleep,10.04128,0.323217,1.956063,-0.054092,0.017853,-0.017587,117804
2025-02-26 01:42:00.155572,sleep,10.01734,0.304064,1.999158,-0.053825,0.010658,-0.01732,100049
2025-02-26 01:42:00.155572,sleep,10.02931,0.294487,1.910573,-0.053825,0.001865,-0.022116,80168
2025-02-26 01:42:00.155572,sleep,10.0748,0.316035,1.908179,-0.054891,0.021317,-0.014655,65271
2025-02-26 01:42:00.155572,sleep,10.01973,0.299275,1.939303,-0.055691,0.024515,-0.013856,56981
2025-02-26 01:42:00.155572,sleep,10.06522,0.292093,1.898602,-0.056224,0.026913,-0.014123,54894
2025-02-26 01:42:00.155572,sleep,10.04607,0.308852,1.94888,-0.055158,0.023982,-0.015721,56034
2025-02-26 01:42:00.155572,sleep,10.02692,0.301669,1.960851,-0.055158,0.026113,-0.015721,57618
2025-02-26 01:42:00.155572,sleep,10.02692,0.308852,1.94888,-0.054092,0.01279,-0.019452,58142
2025-02-26 01:42:00.155572,sleep,10.04368,0.308852,1.946486,-0.053559,0.000799,-0.023182,56539
2025-02-26 01:42:00.155572,sleep,10.03649,0.311246,1.94888,-0.051161,-0.001865,-0.02558,55138
2025-02-26 01:42:00.155572,sleep,10.02452,0.308852,1.893813,-0.050361,0.010392,-0.019185,53151
2025-02-26 01:42:00.155572,sleep,10.02692,0.311246,1.908179,-0.052227,0.013323,-0.018386,48658
2025-02-26 01:42:00.155572,sleep,10.04607,0.339977,1.884237,-0.053026,0.00906,-0.018119,39771
2025-02-26 01:42:00.155572,sleep,10.01734,0.299275,1.987187,-0.057289,0.069547,0.001332,26089
2025-02-26 01:42:00.155572,sleep,10.03649,0.366313,1.893813,-0.054891,0.015721,-0.014922,27821
2025-02-26 01:42:00.155572,sleep,10.01734,0.31364,2.025495,-0.054092,0.015721,-0.018652,31665
2025-02-26 01:42:00.155572,sleep,10.07001,0.306458,1.922544,-0.054891,0.037838,-0.00906,40350
2025-02-26 01:42:00.155572,sleep,10.04846,0.31364,1.924938,-0.054625,0.019718,-0.016787,52486
2025-02-26 01:42:00.155572,sleep,10.04128,0.335188,1.889025,-0.057822,0.045832,-0.007994,66655
2025-02-26 01:42:00.155572,sleep,9.993398,0.289698,1.977611,-0.05649,0.058089,-0.001865,72559
2025-02-26 01:42:00.155572,sleep,10.02692,0.28491,1.929727,-0.055691,0.020784,-0.016521,76418
2025-02-26 01:42:00.155572,sleep,10.05086,0.311246,1.927332,-0.055691,0.02185,-0.015455,81823
2025-02-26 01:42:00.155572,sleep,10.06283,0.308852,1.922544,-0.055957,0.032508,-0.009859,86029
2025-02-26 01:42:00.155572,sleep,10.00297,0.308852,1.972822,-0.054891,0.016521,-0.015988,86837
2025-02-26 01:42:00.155572,sleep,10.02931,0.320823,1.92015,-0.054092,0.012257,-0.018919,76418
2025-02-26 01:42:00.155572,sleep,10.0341,0.325611,1.92015,-0.054625,0.017853,-0.016521,86172
2025-02-26 01:42:00.155572,sleep,10.04607,0.299275,1.932121,-0.055158,0.03544,-0.011458,87605
2025-02-26 01:42:00.155572,sleep,10.07241,0.306458,1.941698,-0.055957,0.03544,-0.010658,88920
2025-02-26 01:42:00.155572,sleep,10.0317,0.323217,1.946486,-0.055158,0.022649,-0.015455,89004
2025-02-26 01:42:00.155572,sleep,10.03649,0.301669,1.934515,-0.054358,0.015455,-0.017054,88133
2025-02-26 01:42:00.155572,sleep,10.05565,0.328006,1.872266,-0.054891,0.022916,-0.015455,88547
2025-02-26 01:42:00.155572,sleep,10.04846,0.311246,1.927332,-0.054092,0.014655,-0.01732,88321
2025-02-26 01:42:00.155572,sleep,10.01734,0.296881,1.956063,-0.053292,0.012524,-0.017054,87001
2025-02-26 01:42:00.155572,sleep,10.01973,0.306458,1.90339,-0.054092,0.016787,-0.017054,85685
2025-02-26 01:42:00.155572,sleep,10.03889,0.325611,1.893813,-0.055424,0.029577,-0.013856,85264
2025-02-26 01:42:00.155572,sleep,10.06522,0.3304,1.936909,-0.05649,0.026646,-0.01279,84351
2025-02-26 01:42:00.155572,sleep,10.02931,0.328006,1.924938,-0.055158,0.020251,-0.01359,82855
2025-02-26 01:42:00.155572,sleep,10.02692,0.292093,1.984793,-0.054358,0.00906,-0.018652,78265
2025-02-26 01:42:00.155572,sleep,10.05565,0.301669,1.898602,-0.053292,0.010925,-0.020251,75427
2025-02-26 01:42:00.155572,sleep,10.04846,0.296881,1.900996,-0.051427,0.027179,-0.013856,75156
2025-02-26 01:42:00.155572,sleep,10.01495,0.282516,1.915361,-0.039969,0.032775,-0.011191,75522
2025-02-26 01:42:00.155572,sleep,10.01016,0.272939,1.989582,-0.021583,0.027446,-0.011724,75228
2025-02-26 01:42:00.155572,sleep,10.05086,0.31364,1.944092,-0.008527,0.031709,-0.010126,75587
2025-02-26 01:42:00.155572,sleep,10.02692,0.368707,1.90339,-0.007461,0.030377,-0.009593,75730
2025-02-26 01:42:00.155572,sleep,10.02213,0.368707,1.879448,-0.026646,0.029044,-0.011724,75686
2025-02-26 01:42:00.155572,sleep,10.04128,0.320823,1.908179,-0.045032,0.029577,-0.013057,75228
2025-02-26 01:42:00.155572,sleep,10.08917,0.301669,1.934515,-0.048763,0.027979,-0.01359,76316
2025-02-26 01:42:00.155572,sleep,10.01734,0.347159,1.908179,-0.049828,0.027712,-0.017853,75756
2025-02-26 01:42:00.155572,sleep,10.0748,0.320823,1.884237,-0.054358,0.024781,-0.014123,74813
2025-02-26 01:42:00.155572,sleep,10.04128,0.304064,1.92015,-0.055158,0.026646,-0.015455,75039
2025-02-26 01:42:00.155572,sleep,10.04846,0.294487,1.982399,-0.054625,0.019452,-0.014655,72235
2025-02-26 01:42:00.155572,sleep,10.08198,0.351948,1.747767,-0.057289,0.022916,-0.013856,77929
2025-02-26 01:42:00.155572,sleep,9.868899,0.246603,2.319981,-0.067415,0.084202,0.016521,80738
2025-02-26 01:42:00.155572,sleep,10.13226,0.397437,1.776498,-0.052227,-0.053559,-0.0437,84414
2025-02-26 01:42:00.155572,sleep,10.02213,0.282516,1.879448,-0.05276,0.066616,-0.010126,90802
2025-02-26 01:42:00.155572,sleep,10.06044,0.344765,1.881842,-0.056757,0.036505,-0.011991,91735
2025-02-26 01:42:00.155572,sleep,10.01495,0.320823,1.963245,-0.059954,0.086334,0.010126,92985
2025-02-26 01:42:00.155572,sleep,10.01973,0.289698,1.999158,-0.054358,0.005063,-0.027179,95674
2025-02-26 01:42:00.155572,sleep,10.08198,0.31364,1.980005,-0.057023,0.039969,-0.006129,93922
2025-02-26 01:42:00.155572,sleep,10.01734,0.318429,1.960851,-0.052493,-0.007194,-0.024781,92095
2025-02-26 01:42:00.155572,sleep,9.991004,0.299275,1.970428,-0.054092,0.006662,-0.018386,88451
2025-02-26 01:42:00.155572,sleep,10.07959,0.320823,1.944092,-0.053825,0.004796,-0.017853,84832
2025-02-26 01:42:00.155572,sleep,10.02452,0.272939,2.126051,-0.055424,0.061286,-0.007194,78731
2025-02-26 01:42:00.155572,sleep,10.10114,0.342371,1.896208,-0.044233,-0.057289,-0.053292,67563
2025-02-26 01:42:00.155572,sleep,10.03889,0.251391,2.037466,-0.039969,-0.023449,-0.032242,55122
2025-02-26 01:42:00.155572,sleep,9.967062,0.258574,2.171541,-0.003198,-0.023449,-0.029044,45287
2025-02-26 01:42:00.155572,sleep,10.18015,0.423774,1.486799,0.021317,0.042101,-0.004796,36573
2025-02-26 01:42:00.155572,sleep,9.940725,0.351948,1.941698,0.007727,0.186257,0.055424,33917
2025-02-26 01:42:00.155572,sleep,9.988609,0.308852,1.94888,-0.031176,-0.013057,-0.021583,37362
2025-02-26 01:42:00.155572,sleep,10.07959,0.304064,1.905785,-0.057822,0.038637,0.015188,33048
2025-02-26 01:42:00.155572,sleep,10.0341,0.387861,2.11408,-0.056224,0.078606,-0.002132,31487
2025-02-26 01:42:00.155572,sleep,10.04607,0.265756,1.934515,-0.058355,0.093528,0.00453,30156
2025-02-26 01:42:00.155572,sleep,9.952697,0.237026,1.980005,-0.054092,-0.045299,-0.033574,28577
2025-02-26 01:42:00.155572,sleep,10.08198,0.318429,1.900996,-0.050361,-0.069014,-0.040502,29769
2025-02-26 01:42:00.155572,sleep,10.21127,0.373495,1.802834,-0.056757,0.019452,-0.003198,30817
2025-02-26 01:42:00.155572,sleep,10.01734,0.325611,2.049437,-0.051161,-0.063951,-0.048763,31014
2025-02-26 01:42:00.155572,sleep,10.06522,0.351948,1.850718,-0.055158,0.04823,-0.006662,32020
2025-02-26 01:42:00.155572,sleep,10.02692,0.299275,1.951274,-0.054891,0.017853,-0.018919,33659
2025-02-26 01:42:00.155572,sleep,10.04368,0.316035,1.946486,-0.057556,0.068747,0.001599,34084
2025-02-26 01:42:00.155572,sleep,10.03889,0.301669,1.984793,-0.05649,0.029044,-0.014123,33666
2025-02-26 01:42:00.155572,sleep,10.0341,0.289698,1.934515,-0.053026,-0.010925,-0.026646,33074
2025-02-26 01:42:00.155572,sleep,10.06044,0.337582,1.872266,-0.054891,0.014123,-0.01732,33413
2025-02-26 01:42:00.155572,sleep,10.05325,0.306458,1.905785,-0.055691,0.019718,-0.015721,33682
2025-02-26 01:42:00.155572,sleep,10.0317,0.31364,1.90339,-0.056757,0.03544,-0.010392,34300
2025-02-26 01:42:00.155572,sleep,10.07241,0.316035,1.900996,-0.055957,0.048496,-0.003997,36073
2025-02-26 01:42:00.155572,sleep,10.01734,0.294487,1.963245,-0.054625,0.026913,-0.011191,37160
2025-02-26 01:42:00.155572,sleep,10.04607,0.351948,1.87466,-0.056757,0.035173,-0.009593,36715
2025-02-26 01:42:00.155572,sleep,10.02692,0.31364,1.991976,-0.056224,0.032242,-0.011991,36378
2025-02-26 01:42:00.155572,sleep,10.01973,0.301669,1.944092,-0.054891,0.016254,-0.016254,36553
2025-02-26 01:42:00.155572,sleep,10.01016,0.299275,1.924938,-0.055424,0.029311,-0.012524,36844
2025-02-26 01:42:00.155572,sleep,10.03889,0.299275,1.934515,-0.055957,0.028778,-0.012524,37188
2025-02-26 01:42:00.155572,sleep,10.01973,0.299275,1.941698,-0.056224,0.032775,-0.010126,37956
2025-02-26 01:42:00.155572,sleep,10.04368,0.31364,1.946486,-0.055691,0.027179,-0.014389,39401
2025-02-26 01:42:00.155572,sleep,10.05804,0.301669,1.905785,-0.054891,0.029311,-0.010658,42693
2025-02-26 01:42:00.155572,sleep,10.05565,0.304064,1.936909,-0.055158,0.017853,-0.018652,48086
2025-02-26 01:42:00.155572,sleep,10.05804,0.328006,1.915361,-0.055957,0.032242,-0.011724,52643
2025-02-26 01:42:00.155572,sleep,9.995792,0.316035,1.94888,-0.05196,-0.013057,-0.026913,69152
2025-02-26 01:42:00.155572,sleep,10.04128,0.311246,1.927332,-0.05649,0.068481,0.001332,81933
2025-02-26 01:42:00.155572,sleep,10.05565,0.318429,1.960851,-0.050628,-0.03011,-0.035972,80340
2025-02-26 01:42:00.155572,sleep,10.04846,0.320823,1.941698,-0.054891,0.025047,-0.013323,79417
2025-02-26 01:42:00.155572,sleep,10.06044,0.323217,1.893813,-0.054092,0.010126,-0.019718,79556
2025-02-26 01:42:00.155572,sleep,10.01016,0.304064,1.975216,-0.054358,0.015455,-0.016787,77234
2025-02-26 01:42:00.155572,sleep,10.03889,0.318429,1.939303,-0.052227,0.003997,-0.020251,72811
2025-02-26 01:42:00.155572,sleep,10.04128,0.320823,1.912967,-0.053825,0.018119,-0.016254,70564
2025-02-26 01:42:00.155572,sleep,10.06762,0.320823,1.946486,-0.054625,0.034107,-0.011458,74257
2025-02-26 01:42:00.155572,sleep,10.02692,0.325611,1.915361,-0.054891,0.01732,-0.014123,64998
2025-02-26 01:42:00.155572,sleep,10.03649,0.306458,1.934515,-0.054891,0.022649,-0.015455,47097
2025-02-26 01:42:00.155572,sleep,10.0317,0.308852,1.936909,-0.056757,0.039436,-0.008793,31208
2025-02-26 01:42:00.155572,sleep,10.15141,0.344765,1.568202,-0.054625,-0.018386,-0.028778,28147
2025-02-26 01:42:00.155572,sleep,10.01973,0.296881,2.011129,-0.056224,0.026646,-0.010126,26604
2025-02-26 01:42:00.155572,sleep,10.06283,0.344765,1.836353,-0.055158,0.013323,-0.016254,29530
2025-02-26 01:42:00.155572,sleep,10.01734,0.304064,1.980005,-0.054358,0.00826,-0.018386,34662
2025-02-26 01:42:00.155572,sleep,10.06044,0.332794,1.891419,-0.055158,0.035173,-0.010392,38382
2025-02-26 01:42:00.155572,sleep,10.06522,0.304064,1.881842,-0.055957,0.029044,-0.011458,38558
2025-02-26 01:42:00.155572,sleep,10.04128,0.320823,1.877054,-0.056224,0.025314,-0.012524,38037
2025-02-26 01:42:00.155572,sleep,10.04368,0.323217,1.889025,-0.055424,0.027712,-0.011191,38725
2025-02-26 01:42:00.155572,sleep,10.05325,0.318429,1.896208,-0.05649,0.043433,-0.008793,41141
2025-02-26 01:42:00.155572,sleep,10.02692,0.316035,1.929727,-0.055957,0.040236,-0.010126,43434
2025-02-26 01:42:00.155572,sleep,10.05804,0.318429,1.924938,-0.055158,0.029311,-0.013856,44511
2025-02-26 01:42:00.155572,sleep,10.0317,0.320823,1.781286,-0.058089,0.05196,-0.010658,44512
2025-02-26 01:42:00.155572,sleep,9.983821,0.287304,1.99437,-0.062086,0.046364,-0.006928,44777
2025-02-26 01:42:00.155572,sleep,10.08198,0.35913,1.843535,-0.080472,0.018652,-0.018386,45381
2025-02-26 01:42:00.155572,sleep,10.05804,0.339977,1.867477,-0.135896,0.014922,-0.019185,45291
2025-02-26 01:42:00.155572,sleep,9.998186,0.289698,2.03986,-0.145489,-0.005063,-0.026113,45217
2025-02-26 01:42:00.155572,sleep,10.00537,0.296881,1.898602,-0.106319,-0.000799,-0.028245,44944
2025-02-26 01:42:00.155572,sleep,10.06522,0.366313,1.723825,-0.121507,0.015455,-0.023182,45216
2025-02-26 01:42:00.155572,sleep,10.05325,0.260968,1.944092,-0.16041,0.024515,-0.022649,46528
2025-02-26 01:42:00.155572,sleep,10.05565,0.043096,1.944092,-0.145489,0.010392,-0.023182,48737
2025-02-26 01:42:00.155572,sleep,10.02213,0.189142,1.987187,-0.154015,0.020518,-0.021317,50879
2025-02-26 01:42:00.155572,sleep,10.06283,0.428562,2.032677,-0.125237,0.013856,-0.018652,52168
2025-02-26 01:42:00.155572,sleep,9.995792,0.428562,2.08535,-0.095127,0.027446,-0.014123,53087
2025-02-26 01:42:00.155572,sleep,9.974244,0.301669,2.08535,-0.066882,0.035173,-0.013057,53842
2025-02-26 01:42:00.155572,sleep,9.986216,0.316035,1.910573,-0.055691,0.01732,-0.017853,54045
2025-02-26 01:42:00.155572,sleep,10.02931,0.308852,1.934515,-0.055158,0.022916,-0.020784,55415
2025-02-26 01:42:00.155572,sleep,10.1155,0.28491,1.917756,-0.055158,0.031709,-0.013323,57469
2025-02-26 01:42:00.155572,sleep,10.05804,0.306458,1.94888,-0.057822,0.028778,-0.009859,58410
2025-02-26 01:42:00.155572,sleep,10.06044,0.361524,1.82917,-0.057289,0.07834,0.006928,57068
2025-02-26 01:42:00.155572,sleep,9.988609,0.289698,1.968034,-0.058888,0.093528,0.00906,54222
2025-02-26 01:42:00.155572,sleep,9.933543,0.258574,2.109292,-0.059688,0.083136,0.007994,53391
2025-02-26 01:42:00.155572,sleep,10.04128,0.263362,2.013524,-0.055957,0.034374,-0.011724,54777
2025-02-26 01:42:00.155572,sleep,10.01016,0.280122,1.912967,-0.05196,-0.05649,-0.042368,56468
2025-02-26 01:42:00.155572,sleep,10.07959,0.306458,1.821988,-0.051694,-0.040236,-0.040236,58582
2025-02-26 01:42:00.155572,sleep,10.10353,0.354342,1.766921,-0.053559,-0.002398,-0.024248,61604
2025-02-26 01:42:00.155572,sleep,10.06522,0.246603,1.946486,-0.054358,0.026913,-0.013856,63153
2025-02-26 01:42:00.155572,sleep,9.981427,0.318429,1.939303,-0.054625,0.018652,-0.014389,64259
2025-02-26 01:42:00.155572,sleep,10.00537,0.344765,1.977611,-0.053559,0.017054,-0.017853,65741
2025-02-26 01:42:00.155572,sleep,10.03649,0.299275,1.951274,-0.055158,0.022649,-0.014123,67792
2025-02-26 01:42:00.155572,sleep,10.06522,0.268151,1.891419,-0.055957,0.041302,-0.011191,71202
2025-02-26 01:42:00.155572,sleep,10.06283,0.311246,1.932121,-0.059155,0.035173,-0.011458,72603
2025-02-26 01:42:00.155572,sleep,10.04846,0.205901,1.936909,-0.065017,0.025847,-0.014922,74193
2025-02-26 01:42:00.155572,sleep,10.03889,0.234632,1.94888,-0.068214,0.013323,-0.017587,75708
2025-02-26 01:42:00.155572,sleep,10.02692,0.308852,1.99437,-0.066349,0.010392,-0.017587,76652
2025-02-26 01:42:00.155572,sleep,10.04368,0.19393,2.008735,-0.043167,0.006662,-0.016787,77070
2025-02-26 01:42:00.155572,sleep,10.05086,-0.023942,2.03986,-0.000266,0.019185,-0.009326,78196
2025-02-26 01:42:00.155572,sleep,10.00297,0.378284,1.833959,0.013856,0.018119,-0.007461,79636
2025-02-26 01:42:00.155572,sleep,10.02452,0.497994,1.96564,-0.005862,0.00826,-0.014389,80884
2025-02-26 01:42:00.155572,sleep,10.01255,0.354342,1.968034,-0.021583,0.027179,-0.012524,77070
2025-02-26 01:42:00.155572,sleep,10.04128,0.246603,1.960851,-0.011724,0.017054,-0.01359,81370
2025-02-26 01:42:00.155572,sleep,10.0317,0.158017,2.049437,0.026646,0.023182,-0.008527,81468
2025-02-26 01:42:00.155572,sleep,10.03889,0.167594,2.044648,0.058355,0.033308,-0.003997,81861
2025-02-26 01:42:00.155572,sleep,10.08198,0.251391,1.980005,0.083403,0.050628,0.002665,82255
2025-02-26 01:42:00.155572,sleep,10.01973,0.268151,1.956063,0.086067,0.050361,0.000799,82581
2025-02-26 01:42:00.155572,sleep,10.01973,0.038307,2.0231,0.082337,0.050361,-0.000266,83228
2025-02-26 01:42:00.155572,sleep,10.04846,0.181959,1.795651,0.076208,0.03091,-0.002665,84184
2025-02-26 01:42:00.155572,sleep,10.02931,0.25618,1.908179,0.029844,0.059155,-0.000799,85174
2025-02-26 01:42:00.155572,sleep,10.09874,0.294487,1.872266,-0.022383,0.058089,-0.000799,85831
2025-02-26 01:42:00.155572,sleep,10.04128,0.52433,1.987187,-0.066349,0.055957,-0.00453,87164
2025-02-26 01:42:00.155572,sleep,10.01973,0.565032,2.035071,-0.069014,0.041035,-0.005862,88473
2025-02-26 01:42:00.155572,sleep,10.02452,0.21069,2.08535,-0.054358,0.031975,-0.006928,89304
2025-02-26 01:42:00.155572,sleep,10.02692,0.222661,2.094927,-0.046364,0.023715,-0.01279,90289
2025-02-26 01:42:00.155572,sleep,10.04128,0.287304,2.044648,-0.063418,0.016254,-0.018919,91583
2025-02-26 01:42:00.155572,sleep,10.08198,0.47884,1.860295,-0.067415,-0.002665,-0.028245,92570
2025-02-26 01:42:00.155572,sleep,10.05804,0.251391,2.030283,-0.055691,0.00826,-0.017587,93556
2025-02-26 01:42:00.155572,sleep,10.03889,0.31364,1.951274,-0.049828,0.009859,-0.018386,94785
2025-02-26 01:42:00.155572,sleep,10.08677,0.452504,1.778892,-0.071945,0.022116,-0.018652,95630
2025-02-26 01:42:00.155572,sleep,10.00058,0.387861,1.946486,-0.114046,0.056224,-0.010658,96100
2025-02-26 01:42:00.155572,sleep,10.05565,0.189142,2.011129,-0.079672,0.037838,-0.008527,96629
2025-02-26 01:42:00.155572,sleep,10.00776,0.174777,2.149993,-0.065283,0.046631,-0.006662,97524
2025-02-26 01:42:00.155572,sleep,10.04368,0.457293,1.833959,-0.08207,0.01359,-0.021051,98378
2025-02-26 01:42:00.155572,sleep,10.05325,0.282516,2.063802,-0.100723,0.034374,-0.01732,99849
2025-02-26 01:42:00.155572,sleep,10.00297,0.337582,2.011129,-0.055158,0.024781,-0.018119,96629
2025-02-26 01:42:00.155572,sleep,10.0341,0.411803,1.644817,-0.063685,0.014389,-0.018386,102328
2025-02-26 01:42:00.155572,sleep,10.07241,0.220267,1.802834,-0.142557,-0.004263,-0.025847,103620
2025-02-26 01:42:00.155572,sleep,10.1993,0.775721,1.565808,-0.181461,-0.028511,-0.055691,104424
2025-02-26 01:42:00.155572,sleep,10.10353,0.347159,1.781286,-0.06928,0.016521,-0.018119,103889
2025-02-26 01:42:00.155572,sleep,10.02931,0.296881,2.018312,-0.060221,0.022116,-0.01359,103850
2025-02-26 01:42:00.155572,sleep,9.988609,0.277727,2.121263,-0.060753,0.046364,-0.009326,103994
2025-02-26 01:42:00.155572,sleep,10.02931,0.311246,2.018312,-0.05649,0.030377,-0.013057,104091
2025-02-26 01:42:00.155572,sleep,10.01495,0.304064,1.958457,-0.053026,0.009326,-0.01732,103747
2025-02-26 01:42:00.155572,sleep,10.03889,0.299275,1.939303,-0.053559,0.020518,-0.014389,103445
2025-02-26 01:42:00.155572,sleep,10.02452,0.299275,1.963245,-0.053026,0.018652,-0.014389,102881
2025-02-26 01:42:00.155572,sleep,10.02452,0.301669,1.96564,-0.050628,0.010392,-0.01732,102219
2025-02-26 01:42:00.155572,sleep,10.05325,0.301669,1.90339,-0.05276,0.017587,-0.015188,101958
2025-02-26 01:42:00.155572,sleep,10.0317,0.308852,1.932121,-0.055158,0.028511,-0.01359,102151
2025-02-26 01:42:00.155572,sleep,10.02213,0.292093,1.963245,-0.05649,0.031975,-0.01279,101996
2025-02-26 01:42:00.155572,sleep,10.04607,0.287304,1.960851,-0.055691,0.028511,-0.011191,101605
2025-02-26 01:42:00.155572,sleep,10.01255,0.294487,1.968034,-0.055691,0.024248,-0.014123,100996
2025-02-26 01:42:00.155572,sleep,10.02213,0.292093,1.941698,-0.054625,0.023182,-0.014123,100048
2025-02-26 01:42:00.155572,sleep,10.01973,0.311246,1.939303,-0.054625,0.020784,-0.012524,99018
2025-02-26 01:42:00.155572,sleep,10.05325,0.308852,1.958457,-0.054358,0.021583,-0.014123,97996
2025-02-26 01:42:00.155572,sleep,10.04128,0.308852,1.946486,-0.054625,0.019718,-0.014655,96863
2025-02-26 01:42:00.155572,sleep,10.0341,0.308852,1.932121,-0.054092,0.020784,-0.014389,96230
2025-02-26 01:42:00.155572,sleep,10.03649,0.28491,1.96564,-0.055424,0.023715,-0.013057,96158
2025-02-26 01:42:00.155572,sleep,10.04607,0.296881,1.968034,-0.055158,0.027446,-0.014655,95552
2025-02-26 01:42:00.155572,sleep,10.0317,0.301669,1.963245,-0.054358,0.026913,-0.01359,94725
2025-02-26 01:42:00.155572,sleep,10.04128,0.294487,1.944092,-0.055424,0.027446,-0.014389,94354
2025-02-26 01:42:00.155572,sleep,10.04128,0.318429,1.956063,-0.055424,0.026113,-0.014655,94702
2025-02-26 01:42:00.155572,sleep,10.04846,0.308852,1.944092,-0.054358,0.020784,-0.014922,93820
2025-02-26 01:42:00.155572,sleep,10.02213,0.294487,1.951274,-0.054625,0.022649,-0.014655,93332
2025-02-26 01:42:00.155572,sleep,10.0341,0.311246,1.960851,-0.055691,0.02638,-0.014389,94185
2025-02-26 01:42:00.155572,sleep,10.04846,0.306458,1.944092,-0.055158,0.024515,-0.014123,93683
2025-02-26 01:42:00.155572,sleep,10.0317,0.308852,2.018312,-0.054092,0.019985,-0.016787,92345
2025-02-26 01:42:00.155572,sleep,10.03889,0.299275,1.807622,-0.044766,-0.023182,-0.022649,90772
2025-02-26 01:42:00.155572,sleep,10.01734,0.296881,1.991976,-0.016787,-0.002665,-0.017587,90500
2025-02-26 01:42:00.155572,sleep,10.02692,0.339977,2.202666,-0.00453,0.037038,-0.011724,89820
2025-02-26 01:42:00.155572,sleep,10.07241,0.229843,1.61848,0.076208,-0.01732,-0.020251,90918
2025-02-26 01:42:00.155572,sleep,10.05565,0.304064,1.850718,-0.037571,0.065017,-0.015988,92932
2025-02-26 01:42:00.155572,sleep,10.10353,0.347159,1.960851,-0.069547,0.056224,-0.00906,92242
2025-02-26 01:42:00.155572,sleep,10.03649,0.299275,1.970428,-0.057289,0.013057,-0.01279,90916
2025-02-26 01:42:00.155572,sleep,10.02213,0.282516,1.860295,-0.055957,0.024515,-0.013057,89382
2025-02-26 01:42:00.155572,sleep,10.0317,0.304064,1.886631,-0.055158,0.033841,-0.013323,89079
2025-02-26 01:42:00.155572,sleep,10.05804,0.304064,1.972822,-0.055691,0.028245,-0.015188,88544
2025-02-26 01:42:00.155572,sleep,10.04607,0.320823,1.980005,-0.054891,0.022383,-0.013856,87782
2025-02-26 01:42:00.155572,sleep,10.03889,0.296881,1.929727,-0.054358,0.029044,-0.01359,86939
2025-02-26 01:42:00.155572,sleep,10.03889,0.311246,1.996764,-0.056224,0.041302,-0.010392,86727
2025-02-26 01:42:00.155572,sleep,10.01495,0.301669,1.975216,-0.054891,0.03464,-0.014123,88358
2025-02-26 01:42:00.155572,sleep,10.04846,0.311246,1.968034,-0.054625,0.025047,-0.015188,89245
2025-02-26 01:42:00.155572,sleep,10.04128,0.323217,1.94888,-0.055158,0.020784,-0.015188,88998
2025-02-26 01:42:00.155572,sleep,10.04128,0.308852,1.960851,-0.055158,0.025047,-0.01359,88930
2025-02-26 01:42:00.155572,sleep,10.04368,0.31364,1.94888,-0.055424,0.026646,-0.014123,89852
2025-02-26 01:42:00.155572,sleep,10.04846,0.301669,1.917756,-0.05649,0.025847,-0.014655,90941
2025-02-26 01:42:00.155572,sleep,10.06283,0.304064,1.936909,-0.057556,0.026113,-0.015455,91586
2025-02-26 01:42:00.155572,sleep,10.01495,0.304064,1.972822,-0.057822,0.021583,-0.014922,91275
2025-02-26 01:42:00.155572,sleep,10.02452,0.289698,1.956063,-0.056757,0.021583,-0.013856,89852
2025-02-26 01:42:00.155572,sleep,10.04607,0.323217,1.838747,-0.059688,0.093528,-0.005063,89359
2025-02-26 01:42:00.155572,sleep,10.04607,0.296881,1.963245,-0.065283,0.071145,-0.003997,88156
2025-02-26 01:42:00.155572,sleep,10.04128,0.299275,1.951274,-0.067948,0.055957,-0.005329,91275
2025-02-26 01:42:00.155572,sleep,10.04368,0.299275,1.996764,-0.067948,0.051161,-0.006928,87704
2025-02-26 01:42:00.155572,sleep,10.06044,0.332794,1.932121,-0.069547,0.033308,-0.011191,88637
2025-02-26 01:42:00.155572,sleep,10.01495,0.248997,2.042254,-0.101256,0.075409,0.007727,88554
2025-02-26 01:42:00.155572,sleep,10.0341,0.263362,2.015918,-0.084469,0.049828,-0.006928,88550
2025-02-26 01:42:00.155572,sleep,9.991004,0.25618,2.094927,-0.084469,0.04823,-0.007461,88850
2025-02-26 01:42:00.155572,sleep,10.02452,0.28491,2.011129,-0.061819,0.019452,-0.013856,88708
2025-02-26 01:42:00.155572,sleep,10.02213,0.289698,2.006341,-0.059954,0.009593,-0.017054,88839
2025-02-26 01:42:00.155572,sleep,9.988609,0.234632,2.054225,-0.100723,0.011191,-0.016521,89414
2025-02-26 01:42:00.155572,sleep,10.12987,0.383072,1.84593,-0.088998,0.037571,-0.027179,90002
2025-02-26 01:42:00.155572,sleep,10.12747,0.292093,1.793257,-0.057556,0.015188,-0.01732,90020
2025-02-26 01:42:00.155572,sleep,10.00776,0.323217,1.956063,-0.055424,-0.023449,-0.027446,89714
2025-02-26 01:42:00.155572,sleep,9.94312,0.37589,2.169147,-0.197715,-0.102322,-0.066083,88551
2025-02-26 01:42:00.155572,sleep,10.00297,0.280122,2.073379,-0.223296,-0.171069,-0.087933,87427
2025-02-26 01:42:00.155572,sleep,10.0772,0.316035,1.915361,-0.223562,-0.206242,-0.095127,86428
2025-02-26 01:42:00.155572,sleep,10.10353,0.196325,2.001553,-0.22223,-0.144689,-0.087666,85418
2025-02-26 01:42:00.155572,sleep,10.0317,0.265756,1.956063,-0.163075,-0.121507,-0.100723,85033
2025-02-26 01:42:00.155572,sleep,10.01016,0.395043,1.802834,-0.132698,-0.085801,-0.089798,84507
2025-02-26 01:42:00.155572,sleep,10.05565,0.318429,1.817199,-0.112181,-0.06102,-0.063685,84234
2025-02-26 01:42:00.155572,sleep,10.05086,0.325611,1.872266,-0.078606,-0.034374,-0.046897,84050
2025-02-26 01:42:00.155572,sleep,10.1155,0.490811,1.764527,-0.079939,-0.085534,-0.059954,85033
2025-02-26 01:42:00.155572,sleep,10.19451,0.536301,1.762132,-0.159611,-0.258469,-0.118043,85151
2025-02-26 01:42:00.155572,sleep,10.20888,0.3304,1.786075,-0.163608,-0.385838,-0.134297,87261
2025-02-26 01:42:00.155572,sleep,9.976639,0.3304,1.769315,-0.099124,-0.299237,-0.131366,89486
2025-02-26 01:42:00.155572,sleep,10.0317,0.428562,1.422156,-0.072744,-0.210239,-0.112181,91095
2025-02-26 01:42:00.155572,sleep,10.01734,0.474052,1.493982,-0.087133,-0.182793,-0.096193,92736
2025-02-26 01:42:00.155572,sleep,10.0341,0.411803,1.505953,-0.060221,-0.177198,-0.076475,94130
2025-02-26 01:42:00.155572,sleep,9.931149,0.519542,1.412579,-0.029577,-0.104187,-0.049029,94888
2025-02-26 01:42:00.155572,sleep,10.07001,0.521936,1.328782,-0.03464,-0.077008,-0.040236,95641
2025-02-26 01:42:00.155572,sleep,10.06283,0.536301,1.448492,-0.033841,-0.097792,-0.03917,96269
2025-02-26 01:42:00.155572,sleep,10.09635,0.486023,1.374272,-0.022649,-0.129767,-0.045565,96856
2025-02-26 01:42:00.155572,sleep,10.04846,0.533907,1.307234,-0.019985,-0.127636,-0.046098,97353
2025-02-26 01:42:00.155572,sleep,9.964667,0.54109,1.16837,-0.03091,-0.114845,-0.029577,97459
2025-02-26 01:42:00.155572,sleep,9.976639,0.52433,1.161188,-0.042101,-0.03091,0.002132,97177
2025-02-26 01:42:00.155572,sleep,10.0317,0.490811,1.242591,-0.033308,0.092995,0.023715,96102
2025-02-26 01:42:00.155572,sleep,10.06522,0.481235,1.271321,-0.031975,0.168671,0.031176,94454
2025-02-26 01:42:00.155572,sleep,10.04368,0.600945,1.261744,-0.040502,0.193985,0.038904,92529
2025-02-26 01:42:00.155572,sleep,10.0772,0.395043,1.177947,-0.035972,0.338141,0.043966,88797
2025-02-26 01:42:00.155572,sleep,10.12508,0.117316,1.321599,-0.030377,0.513473,0.050628,84727
2025-02-26 01:42:00.155572,sleep,9.967062,0.452504,1.534683,-0.029044,0.662159,0.061819,79525
2025-02-26 01:42:00.155572,sleep,10.03649,0.512359,1.817199,-0.043167,0.54385,0.109516,75877
2025-02-26 01:42:00.155572,sleep,10.2831,0.454898,2.082955,-0.054358,0.212904,0.062885,74060
2025-02-26 01:42:00.155572,sleep,10.05086,0.397437,1.908179,-0.027179,0.048496,0.001865,72090
2025-02-26 01:42:00.155572,sleep,9.998186,0.426168,1.692701,-0.023982,0.081804,0.024248,70162
2025-02-26 01:42:00.155572,sleep,10.08438,0.442927,1.802834,-0.026646,0.115645,0.036505,75877
2025-02-26 01:42:00.155572,sleep,10.1155,0.411803,1.817199,-0.038371,0.03464,-0.005862,67150
2025-02-26 01:42:00.155572,sleep,10.06522,0.433351,1.740585,-0.043966,0.00826,-0.021583,65561
2025-02-26 01:42:00.155572,sleep,10.06044,0.423774,1.733402,-0.055424,0.035706,-0.008527,64325
2025-02-26 01:42:00.155572,sleep,10.11311,0.37589,1.807622,-0.045565,0.063152,0.007994,62919
2025-02-26 01:42:00.155572,sleep,10.06762,0.414197,1.716643,-0.054092,0.05196,0.002398,62696
2025-02-26 01:42:00.155572,sleep,10.05804,0.40462,1.819593,-0.058355,0.045832,-0.000533,63240
2025-02-26 01:42:00.155572,sleep,10.06762,0.399832,1.833959,-0.055424,0.023715,-0.009593,64139
