Timestamp,Label,AccelX,AccelY,AccelZ,GyroX,GyroY,GyroZ,IR
2025-02-26 00:54:16.128940,sleep,9.832987,1.074997,-0.92895,-0.055957,0.025047,-0.014123,114921
2025-02-26 00:54:16.128940,sleep,9.856929,1.058237,-0.931344,-0.055691,0.024515,-0.013856,114942
2025-02-26 00:54:16.128940,sleep,9.856929,1.072602,-0.890643,-0.054891,0.025314,-0.01359,114986
2025-02-26 00:54:16.128940,sleep,9.85214,1.086968,-0.914585,-0.055424,0.02558,-0.014389,115001
2025-02-26 00:54:16.128940,sleep,9.854534,1.063026,-0.895431,-0.054891,0.023715,-0.014389,115033
2025-02-26 00:54:16.128940,sleep,9.856929,1.072602,-0.924162,-0.053825,0.023449,-0.014389,115045
2025-02-26 00:54:16.128940,sleep,9.849746,1.070208,-0.914585,-0.055424,0.022383,-0.014655,115014
2025-02-26 00:54:16.128940,sleep,9.840169,1.067814,-0.933739,-0.054891,0.022383,-0.014922,115046
2025-02-26 00:54:16.128940,sleep,9.844957,1.067814,-0.895431,-0.054625,0.023449,-0.014655,115149
2025-02-26 00:54:16.128940,sleep,9.861717,1.063026,-0.907402,-0.055424,0.024248,-0.014922,115238
2025-02-26 00:54:16.128940,sleep,9.864111,1.086968,-0.90022,-0.055158,0.024248,-0.014655,115311
2025-02-26 00:54:16.128940,sleep,9.842564,1.082179,-0.893037,-0.055691,0.023982,-0.014922,115295
2025-02-26 00:54:16.128940,sleep,9.828198,1.055843,-0.895431,-0.055691,0.022916,-0.014655,115359
2025-02-26 00:54:16.128940,sleep,9.849746,1.070208,-0.924162,-0.055424,0.025047,-0.014655,115408
2025-02-26 00:54:16.128940,sleep,9.842564,1.077391,-0.912191,-0.054891,0.024248,-0.014922,115423
2025-02-26 00:54:16.128940,sleep,9.854534,1.077391,-0.885855,-0.054092,0.023182,-0.014389,115463
2025-02-26 00:54:16.128940,sleep,9.840169,1.070208,-0.907402,-0.054358,0.024248,-0.014655,115506
2025-02-26 00:54:16.128940,sleep,9.830592,1.072602,-0.907402,-0.055424,0.022916,-0.013856,115565
2025-02-26 00:54:16.128940,sleep,9.861717,1.055843,-0.914585,-0.055691,0.023182,-0.014655,115651
2025-02-26 00:54:16.128940,sleep,9.85214,1.074997,-0.888249,-0.054891,0.023715,-0.014655,115741
2025-02-26 00:54:16.128940,sleep,9.835381,1.067814,-0.916979,-0.054891,0.022916,-0.014389,115767
2025-02-26 00:54:16.128940,sleep,9.835381,1.063026,-0.912191,-0.054625,0.023449,-0.014123,115822
2025-02-26 00:54:16.128940,sleep,9.856929,1.079785,-0.907402,-0.055424,0.023982,-0.014123,115854
2025-02-26 00:54:16.128940,sleep,9.854534,1.067814,-0.907402,-0.055424,0.022649,-0.014389,115923
2025-02-26 00:54:16.128940,sleep,9.847352,1.091756,-0.907402,-0.055691,0.023715,-0.014123,115982
2025-02-26 00:54:16.128940,sleep,9.844957,1.074997,-0.893037,-0.054358,0.023449,-0.014123,115999
2025-02-26 00:54:16.128940,sleep,9.856929,1.074997,-0.895431,-0.055424,0.022116,-0.014123,116047
2025-02-26 00:54:16.128940,sleep,9.859323,1.082179,-0.916979,-0.054891,0.023982,-0.015188,115995
2025-02-26 00:54:16.128940,sleep,9.871294,1.070208,-0.905008,-0.055691,0.022649,-0.015188,115942
2025-02-26 00:54:16.128940,sleep,9.844957,1.060631,-0.914585,-0.055158,0.024515,-0.014123,115923
2025-02-26 00:54:16.128940,sleep,9.844957,1.077391,-0.888249,-0.054625,0.022649,-0.014922,115956
2025-02-26 00:54:16.128940,sleep,9.842564,1.077391,-0.897826,-0.054625,0.022916,-0.014655,115978
2025-02-26 00:54:16.128940,sleep,9.854534,1.067814,-0.92895,-0.055691,0.023715,-0.013856,116017
2025-02-26 00:54:16.128940,sleep,9.85214,1.06542,-0.924162,-0.05649,0.023182,-0.014655,115975
2025-02-26 00:54:16.128940,sleep,9.842564,1.06542,-0.912191,-0.055691,0.023449,-0.014922,115977
2025-02-26 00:54:16.128940,sleep,9.844957,1.084573,-0.921768,-0.054891,0.023182,-0.014123,115978
2025-02-26 00:54:16.128940,sleep,9.854534,1.084573,-0.878672,-0.054358,0.024248,-0.014389,115976
2025-02-26 00:54:16.128940,sleep,9.866506,1.070208,-0.893037,-0.054891,0.023982,-0.013856,115957
2025-02-26 00:54:16.128940,sleep,9.85214,1.072602,-0.907402,-0.055158,0.022383,-0.013856,115967
2025-02-26 00:54:16.128940,sleep,9.854534,1.063026,-0.931344,-0.054358,0.023449,-0.014389,115957
2025-02-26 00:54:16.128940,sleep,9.864111,1.074997,-0.905008,-0.054358,0.023982,-0.014655,115987
2025-02-26 00:54:16.128940,sleep,9.842564,1.055843,-0.924162,-0.054358,0.022383,-0.014389,115992
2025-02-26 00:54:16.128940,sleep,9.844957,1.074997,-0.916979,-0.055424,0.023982,-0.014389,116067
2025-02-26 00:54:16.128940,sleep,9.847352,1.074997,-0.885855,-0.056757,0.021051,-0.014123,115957
2025-02-26 00:54:16.128940,sleep,9.859323,1.070208,-0.888249,-0.053825,0.020251,-0.015188,115967
2025-02-26 00:54:16.128940,sleep,9.840169,1.063026,-0.94571,-0.054625,0.022916,-0.015455,115660
2025-02-26 00:54:16.128940,sleep,9.840169,1.074997,-0.926556,-0.056224,0.023982,-0.015455,115174
2025-02-26 00:54:16.128940,sleep,9.847352,1.074997,-0.90022,-0.056224,0.024781,-0.014123,114741
2025-02-26 00:54:16.128940,sleep,9.837775,1.086968,-0.897826,-0.05649,0.022916,-0.014123,114361
2025-02-26 00:54:16.128940,sleep,9.825804,1.074997,-0.905008,-0.055957,0.022116,-0.014922,114137
2025-02-26 00:54:16.128940,sleep,9.859323,1.060631,-0.909797,-0.055424,0.022383,-0.014389,114051
2025-02-26 00:54:16.128940,sleep,9.856929,1.055843,-0.916979,-0.055158,0.022116,-0.014922,114083
2025-02-26 00:54:16.128940,sleep,9.840169,1.082179,-0.905008,-0.054625,0.022116,-0.014655,114168
2025-02-26 00:54:16.128940,sleep,9.832987,1.067814,-0.893037,-0.053825,0.022116,-0.014389,114331
2025-02-26 00:54:16.128940,sleep,9.840169,1.09415,-0.890643,-0.055424,0.022649,-0.014123,114479
2025-02-26 00:54:16.128940,sleep,9.842564,1.079785,-0.916979,-0.055158,0.022916,-0.013323,114629
2025-02-26 00:54:16.128940,sleep,9.842564,1.053449,-0.893037,-0.055424,0.023715,-0.014655,114742
2025-02-26 00:54:16.128940,sleep,9.847352,1.074997,-0.914585,-0.055158,0.023982,-0.014389,114717
2025-02-26 00:54:16.128940,sleep,9.837775,1.086968,-0.938527,-0.054358,0.023982,-0.014655,114786
2025-02-26 00:54:16.128940,sleep,9.854534,1.070208,-0.924162,-0.055424,0.026113,-0.01359,114864
2025-02-26 00:54:16.128940,sleep,9.849746,1.060631,-0.912191,-0.055957,0.025047,-0.014123,114950
2025-02-26 00:54:16.128940,sleep,9.842564,1.082179,-0.893037,-0.055691,0.022649,-0.014922,115089
2025-02-26 00:54:16.128940,sleep,9.844957,1.074997,-0.912191,-0.054891,0.020518,-0.014123,115089
2025-02-26 00:54:16.128940,sleep,9.859323,1.070208,-0.919373,-0.054625,0.023182,-0.014123,115112
2025-02-26 00:54:16.128940,sleep,9.85214,1.067814,-0.916979,-0.054358,0.023449,-0.014389,115118
2025-02-26 00:54:16.128940,sleep,9.854534,1.089362,-0.924162,-0.055424,0.024515,-0.014655,115152
2025-02-26 00:54:16.128940,sleep,9.842564,1.06542,-0.888249,-0.054891,0.024781,-0.014655,115056
2025-02-26 00:54:16.128940,sleep,9.85214,1.041478,-0.907402,-0.055424,0.025314,-0.015188,115112
2025-02-26 00:54:16.128940,sleep,9.856929,1.072602,-0.893037,-0.055957,0.024248,-0.014922,115076
2025-02-26 00:54:16.128940,sleep,9.837775,1.060631,-0.897826,-0.055424,0.022383,-0.014655,115121
2025-02-26 00:54:16.128940,sleep,9.85214,1.070208,-0.916979,-0.055158,0.024248,-0.014655,115237
2025-02-26 00:54:16.128940,sleep,9.830592,1.06542,-0.905008,-0.055158,0.023982,-0.014123,115271
2025-02-26 00:54:16.128940,sleep,9.840169,1.070208,-0.897826,-0.054358,0.022916,-0.014922,115339
2025-02-26 00:54:16.128940,sleep,9.847352,1.084573,-0.909797,-0.054891,0.023182,-0.015188,115305
2025-02-26 00:54:16.128940,sleep,9.854534,1.072602,-0.902614,-0.054625,0.023715,-0.014922,115333
2025-02-26 00:54:16.128940,sleep,9.837775,1.070208,-0.912191,-0.054891,0.022116,-0.014389,115334
2025-02-26 00:54:16.128940,sleep,9.854534,1.063026,-0.885855,-0.055424,0.024781,-0.014922,115447
2025-02-26 00:54:16.128940,sleep,9.854534,1.079785,-0.919373,-0.054625,0.02185,-0.013856,115556
2025-02-26 00:54:16.128940,sleep,9.82341,1.058237,-0.936133,-0.054891,0.023715,-0.014655,115630
2025-02-26 00:54:16.128940,sleep,9.842564,1.086968,-0.905008,-0.054891,0.022916,-0.014922,115629
2025-02-26 00:54:16.128940,sleep,9.844957,1.089362,-0.905008,-0.055691,0.022916,-0.014655,115649
2025-02-26 00:54:16.128940,sleep,9.837775,1.067814,-0.926556,-0.054891,0.022383,-0.014389,115704
2025-02-26 00:54:16.135844,sleep,9.842564,1.082179,-0.907402,-0.054358,0.022116,-0.014389,115783
2025-02-26 00:54:16.135844,sleep,9.866506,1.103727,-0.926556,-0.054092,0.023449,-0.014389,115786
2025-02-26 00:54:16.135844,sleep,9.854534,1.067814,-0.924162,-0.055158,0.022383,-0.013323,115801
2025-02-26 00:54:16.135844,sleep,9.821015,1.077391,-0.924162,-0.055691,0.02185,-0.013856,115851
2025-02-26 00:54:16.135844,sleep,9.861717,1.067814,-0.902614,-0.055158,0.023182,-0.014655,115783
2025-02-26 00:54:16.135844,sleep,9.854534,1.084573,-0.924162,-0.055424,0.023182,-0.014655,115922
2025-02-26 00:54:16.135844,sleep,9.832987,1.086968,-0.897826,-0.054891,0.022649,-0.015721,116059
2025-02-26 00:54:16.135844,sleep,9.832987,1.053449,-0.895431,-0.054625,0.02185,-0.014922,115851
2025-02-26 00:54:16.135844,sleep,9.830592,1.072602,-0.909797,-0.054625,0.022116,-0.014123,116112
2025-02-26 00:54:16.135844,sleep,9.864111,1.053449,-0.919373,-0.054891,0.024515,-0.014389,116175
2025-02-26 00:54:16.135844,sleep,9.842564,1.074997,-0.902614,-0.055158,0.022916,-0.015721,116173
2025-02-26 00:54:16.135844,sleep,9.85214,1.074997,-0.916979,-0.054891,0.022116,-0.014655,116292
2025-02-26 00:54:16.135844,sleep,9.821015,1.06542,-0.914585,-0.054625,0.022916,-0.015188,116301
2025-02-26 00:54:16.135844,sleep,9.854534,1.072602,-0.909797,-0.054092,0.022649,-0.014655,116282
2025-02-26 00:54:16.135844,sleep,9.856929,1.058237,-0.912191,-0.054625,0.022916,-0.014922,116245
2025-02-26 00:54:16.135844,sleep,9.844957,1.063026,-0.905008,-0.055158,0.022383,-0.014123,116239
2025-02-26 00:54:16.135844,sleep,9.856929,1.051055,-0.914585,-0.055424,0.022649,-0.015455,116242
2025-02-26 00:54:16.135844,sleep,9.85214,1.084573,-0.907402,-0.055957,0.022649,-0.014655,116286
2025-02-26 00:54:16.135844,sleep,9.830592,1.067814,-0.897826,-0.054358,0.023449,-0.014389,116425
2025-02-26 00:54:16.135844,sleep,9.840169,1.077391,-0.919373,-0.055424,0.022649,-0.014655,116404
2025-02-26 00:54:16.135844,sleep,9.840169,1.072602,-0.912191,-0.054891,0.022383,-0.014655,116349
2025-02-26 00:54:16.135844,sleep,9.847352,1.084573,-0.885855,-0.055424,0.022649,-0.014922,116353
2025-02-26 00:54:16.135844,sleep,9.854534,1.077391,-0.933739,-0.054625,0.023182,-0.014922,116362
2025-02-26 00:54:16.135844,sleep,9.828198,1.084573,-0.909797,-0.055424,0.024781,-0.014123,116387
2025-02-26 00:54:16.135844,sleep,9.837775,1.072602,-0.897826,-0.054891,0.024248,-0.014655,116330
2025-02-26 00:54:16.135844,sleep,9.859323,1.072602,-0.909797,-0.055424,0.022383,-0.014123,116348
2025-02-26 00:54:16.135844,sleep,9.835381,1.077391,-0.912191,-0.055424,0.02185,-0.015188,116412
2025-02-26 00:54:16.135844,sleep,9.832987,1.091756,-0.914585,-0.055424,0.023182,-0.014123,116461
2025-02-26 00:54:16.135844,sleep,9.816227,1.06542,-0.909797,-0.055957,0.024248,-0.014389,116525
2025-02-26 00:54:16.135844,sleep,9.866506,1.079785,-0.907402,-0.055158,0.021317,-0.015455,116467
2025-02-26 00:54:16.135844,sleep,9.849746,1.063026,-0.902614,-0.054625,0.020784,-0.015721,116266
2025-02-26 00:54:16.135844,sleep,9.840169,1.082179,-0.909797,-0.055158,0.022649,-0.015455,115740
2025-02-26 00:54:16.135844,sleep,9.832987,1.06542,-0.907402,-0.055158,0.023715,-0.014922,115226
2025-02-26 00:54:16.135844,sleep,9.849746,1.070208,-0.92895,-0.055158,0.02558,-0.013856,114833
2025-02-26 00:54:16.135844,sleep,9.842564,1.06542,-0.907402,-0.055158,0.024515,-0.014389,114613
2025-02-26 00:54:16.135844,sleep,9.842564,1.082179,-0.885855,-0.055158,0.024781,-0.014389,114531
2025-02-26 00:54:16.135844,sleep,9.82341,1.084573,-0.893037,-0.054891,0.02185,-0.014655,114541
2025-02-26 00:54:16.135844,sleep,9.854534,1.06542,-0.914585,-0.054358,0.020518,-0.014123,114505
2025-02-26 00:54:16.135844,sleep,9.830592,1.053449,-0.92895,-0.053825,0.023182,-0.015188,114633
2025-02-26 00:54:16.135844,sleep,9.842564,1.060631,-0.926556,-0.054092,0.022383,-0.015188,114727
2025-02-26 00:54:16.135844,sleep,9.842564,1.072602,-0.912191,-0.054092,0.022383,-0.013856,114842
2025-02-26 00:54:16.135844,sleep,9.85214,1.079785,-0.895431,-0.055158,0.023715,-0.014389,114961
2025-02-26 00:54:16.135844,sleep,9.856929,1.086968,-0.92895,-0.056224,0.024515,-0.013856,115034
2025-02-26 00:54:16.135844,sleep,9.849746,1.060631,-0.873884,-0.054625,0.023715,-0.014922,115024
2025-02-26 00:54:16.135844,sleep,9.844957,1.060631,-0.914585,-0.055158,0.024248,-0.01359,115042
2025-02-26 00:54:16.135844,sleep,9.85214,1.077391,-0.919373,-0.055957,0.026646,-0.013323,115143
2025-02-26 00:54:16.135844,sleep,9.868899,1.055843,-0.914585,-0.055424,0.023449,-0.013856,115270
2025-02-26 00:54:16.135844,sleep,9.847352,1.072602,-0.90022,-0.054092,0.02185,-0.013856,115306
2025-02-26 00:54:16.135844,sleep,9.866506,1.096544,-0.907402,-0.054358,0.020784,-0.015188,115425
2025-02-26 00:54:16.135844,sleep,9.840169,1.082179,-0.926556,-0.054625,0.02185,-0.014922,115410
2025-02-26 00:54:16.135844,sleep,9.868899,1.06542,-0.907402,-0.054358,0.023449,-0.014389,115407
2025-02-26 00:54:16.135844,sleep,9.847352,1.067814,-0.905008,-0.055691,0.02558,-0.014123,115381
2025-02-26 00:54:16.135844,sleep,9.830592,1.079785,-0.916979,-0.055691,0.025314,-0.014922,115452
2025-02-26 00:54:16.135844,sleep,9.832987,1.067814,-0.902614,-0.055158,0.023982,-0.015188,115472
2025-02-26 00:54:16.135844,sleep,9.856929,1.063026,-0.909797,-0.054358,0.023982,-0.014922,115438
2025-02-26 00:54:16.135844,sleep,9.866506,1.084573,-0.933739,-0.055424,0.023715,-0.013856,115475
2025-02-26 00:54:16.135844,sleep,9.816227,1.084573,-0.909797,-0.054358,0.022916,-0.014655,115529
2025-02-26 00:54:16.135844,sleep,9.847352,1.077391,-0.924162,-0.054625,0.022916,-0.014389,115654
2025-02-26 00:54:16.135844,sleep,9.832987,1.072602,-0.950498,-0.054891,0.022116,-0.014389,115708
2025-02-26 00:54:16.135844,sleep,9.842564,1.079785,-0.912191,-0.055424,0.022649,-0.014922,115720
2025-02-26 00:54:16.135844,sleep,9.82341,1.079785,-0.907402,-0.055957,0.024515,-0.014655,115731
2025-02-26 00:54:16.135844,sleep,9.844957,1.070208,-0.912191,-0.055957,0.023982,-0.013856,115769
2025-02-26 00:54:16.135844,sleep,9.82341,1.060631,-0.893037,-0.055691,0.024248,-0.014123,115785
2025-02-26 00:54:16.135844,sleep,9.835381,1.077391,-0.909797,-0.055691,0.024248,-0.014655,115869
2025-02-26 00:54:16.135844,sleep,9.837775,1.055843,-0.902614,-0.055424,0.023715,-0.014123,115941
2025-02-26 00:54:16.135844,sleep,9.835381,1.067814,-0.907402,-0.05649,0.023182,-0.014389,116024
2025-02-26 00:54:16.135844,sleep,9.856929,1.063026,-0.924162,-0.054625,0.024515,-0.014123,116098
2025-02-26 00:54:16.135844,sleep,9.849746,1.055843,-0.921768,-0.054891,0.022116,-0.015455,116058
2025-02-26 00:54:16.135844,sleep,9.85214,1.077391,-0.905008,-0.054092,0.020518,-0.014389,116102
2025-02-26 00:54:16.135844,sleep,9.821015,1.070208,-0.916979,-0.054625,0.023982,-0.015455,116102
2025-02-26 00:54:16.135844,sleep,9.837775,1.058237,-0.924162,-0.055424,0.023182,-0.014655,116134
2025-02-26 00:54:16.135844,sleep,9.849746,1.053449,-0.914585,-0.053825,0.022916,-0.014123,116160
2025-02-26 00:54:16.135844,sleep,9.847352,1.06542,-0.902614,-0.054891,0.023982,-0.014655,116194
2025-02-26 00:54:16.135844,sleep,9.854534,1.06542,-0.921768,-0.054891,0.022383,-0.014922,116269
2025-02-26 00:54:16.135844,sleep,9.832987,1.074997,-0.905008,-0.054625,0.022916,-0.013856,116335
2025-02-26 00:54:16.135844,sleep,9.849746,1.072602,-0.909797,-0.055691,0.023715,-0.014389,116383
2025-02-26 00:54:16.135844,sleep,9.842564,1.063026,-0.876278,-0.054891,0.023715,-0.014655,116433
2025-02-26 00:54:16.135844,sleep,9.842564,1.079785,-0.881066,-0.055424,0.022116,-0.013856,116269
2025-02-26 00:54:16.135844,sleep,9.840169,1.074997,-0.885855,-0.054891,0.024781,-0.014389,116459
2025-02-26 00:54:16.135844,sleep,9.835381,1.082179,-0.893037,-0.055691,0.023982,-0.015188,116488
2025-02-26 00:54:16.135844,sleep,9.842564,1.09415,-0.905008,-0.054891,0.023715,-0.015455,116569
2025-02-26 00:54:16.135844,sleep,9.832987,1.089362,-0.909797,-0.055691,0.023982,-0.014655,116543
2025-02-26 00:54:16.135844,sleep,9.854534,1.074997,-0.912191,-0.055158,0.023982,-0.014123,116628
2025-02-26 00:54:16.135844,sleep,9.854534,1.082179,-0.893037,-0.055158,0.023982,-0.014655,116622
2025-02-26 00:54:16.135844,sleep,9.847352,1.063026,-0.888249,-0.055158,0.023715,-0.014123,116559
2025-02-26 00:54:16.135844,sleep,9.847352,1.06542,-0.921768,-0.054891,0.022916,-0.014922,116524
2025-02-26 00:54:16.135844,sleep,9.821015,1.067814,-0.895431,-0.055424,0.023715,-0.014389,116550
2025-02-26 00:54:16.135844,sleep,9.866506,1.053449,-0.919373,-0.055158,0.023982,-0.015188,116579
2025-02-26 00:54:16.135844,sleep,9.856929,1.070208,-0.936133,-0.053825,0.021583,-0.014123,116672
2025-02-26 00:54:16.135844,sleep,9.871294,1.074997,-0.938527,-0.054358,0.024248,-0.014389,116661
2025-02-26 00:54:16.135844,sleep,9.832987,1.070208,-0.907402,-0.055691,0.023182,-0.014655,116643
2025-02-26 00:54:16.135844,sleep,9.828198,1.077391,-0.912191,-0.055424,0.024248,-0.014123,116652
2025-02-26 00:54:16.135844,sleep,9.85214,1.086968,-0.909797,-0.054891,0.023182,-0.014655,116660
2025-02-26 00:54:16.135844,sleep,9.847352,1.084573,-0.92895,-0.054891,0.022116,-0.015188,116666
2025-02-26 00:54:16.135844,sleep,9.847352,1.079785,-0.926556,-0.055158,0.022116,-0.014922,116643
2025-02-26 00:54:16.135844,sleep,9.85214,1.089362,-0.912191,-0.054358,0.02185,-0.014922,116620
2025-02-26 00:54:16.135844,sleep,9.835381,1.079785,-0.92895,-0.055158,0.02185,-0.014655,116696
2025-02-26 00:54:16.135844,sleep,9.837775,1.074997,-0.926556,-0.055691,0.025847,-0.01359,116666
2025-02-26 00:54:16.135844,sleep,9.861717,1.072602,-0.909797,-0.054358,0.022383,-0.015188,116800
2025-02-26 00:54:16.135844,sleep,9.842564,1.063026,-0.921768,-0.054625,0.019718,-0.015988,116643
2025-02-26 00:54:16.135844,sleep,9.844957,1.067814,-0.912191,-0.055424,0.022116,-0.015455,116221
2025-02-26 00:54:16.135844,sleep,9.840169,1.084573,-0.905008,-0.055691,0.024515,-0.014655,115667
2025-02-26 00:54:16.135844,sleep,9.842564,1.063026,-0.926556,-0.056224,0.024515,-0.014655,115232
2025-02-26 00:54:16.135844,sleep,9.847352,1.067814,-0.893037,-0.055957,0.024248,-0.014922,115009
2025-02-26 00:54:16.135844,sleep,9.832987,1.082179,-0.907402,-0.055957,0.021051,-0.015455,114873
2025-02-26 00:54:16.135844,sleep,9.859323,1.067814,-0.905008,-0.055957,0.022649,-0.014123,114872
2025-02-26 00:54:16.135844,sleep,9.840169,1.067814,-0.895431,-0.054625,0.023715,-0.013856,114885
2025-02-26 00:54:16.135844,sleep,9.830592,1.082179,-0.921768,-0.054891,0.022649,-0.015188,114960
2025-02-26 00:54:16.135844,sleep,9.849746,1.051055,-0.90022,-0.054358,0.022383,-0.014655,115032
2025-02-26 00:54:16.135844,sleep,9.847352,1.079785,-0.890643,-0.055691,0.022383,-0.013856,115162
2025-02-26 00:54:16.135844,sleep,9.837775,1.072602,-0.888249,-0.055957,0.024515,-0.014655,115279
2025-02-26 00:54:16.135844,sleep,9.837775,1.084573,-0.912191,-0.05649,0.024248,-0.013856,115398
2025-02-26 00:54:16.135844,sleep,9.854534,1.096544,-0.905008,-0.055957,0.024781,-0.014123,115489
2025-02-26 00:54:16.135844,sleep,9.830592,1.079785,-0.912191,-0.054358,0.023182,-0.014389,115467
2025-02-26 00:54:16.135844,sleep,9.844957,1.084573,-0.916979,-0.055424,0.026646,-0.013856,115536
2025-02-26 00:54:16.135844,sleep,9.844957,1.072602,-0.897826,-0.055424,0.02558,-0.01359,115667
2025-02-26 00:54:16.135844,sleep,9.840169,1.070208,-0.864307,-0.054891,0.023715,-0.014922,115753
2025-02-26 00:54:16.135844,sleep,9.835381,1.074997,-0.897826,-0.054358,0.021583,-0.015455,115778
2025-02-26 00:54:16.135844,sleep,9.842564,1.060631,-0.897826,-0.054625,0.021317,-0.015188,115898
2025-02-26 00:54:16.135844,sleep,9.832987,1.074997,-0.907402,-0.055158,0.023182,-0.014389,115920
2025-02-26 00:54:16.135844,sleep,9.847352,1.074997,-0.919373,-0.055424,0.02558,-0.014123,115950
2025-02-26 00:54:16.135844,sleep,9.871294,1.072602,-0.919373,-0.057023,0.025847,-0.013323,115929
2025-02-26 00:54:16.135844,sleep,9.856929,1.070208,-0.912191,-0.055957,0.024515,-0.014123,115882
2025-02-26 00:54:16.135844,sleep,9.832987,1.09415,-0.907402,-0.055424,0.025047,-0.014123,115892
2025-02-26 00:54:16.135844,sleep,9.830592,1.070208,-0.888249,-0.055957,0.024248,-0.014389,115902
2025-02-26 00:54:16.135844,sleep,9.825804,1.063026,-0.907402,-0.054625,0.022116,-0.014389,115927
2025-02-26 00:54:16.135844,sleep,9.844957,1.089362,-0.909797,-0.055158,0.023182,-0.015455,115918
2025-02-26 00:54:16.135844,sleep,9.856929,1.077391,-0.895431,-0.054625,0.022116,-0.014655,115998
2025-02-26 00:54:16.135844,sleep,9.847352,1.060631,-0.905008,-0.055424,0.022383,-0.014922,115986
2025-02-26 00:54:16.135844,sleep,9.871294,1.082179,-0.909797,-0.055691,0.023715,-0.013856,116103
2025-02-26 00:54:16.136936,sleep,9.849746,1.082179,-0.907402,-0.055158,0.022916,-0.015188,116204
2025-02-26 00:54:16.136936,sleep,9.85214,1.067814,-0.92895,-0.055158,0.023715,-0.014922,116319
2025-02-26 00:54:16.136936,sleep,9.847352,1.074997,-0.919373,-0.055691,0.022649,-0.013057,115986
2025-02-26 00:54:16.136936,sleep,9.828198,1.058237,-0.895431,-0.054891,0.022916,-0.014123,116103
2025-02-26 00:54:16.136936,sleep,9.842564,1.058237,-0.905008,-0.054891,0.023182,-0.014123,116484
2025-02-26 00:54:16.136936,sleep,9.864111,1.067814,-0.897826,-0.054891,0.023182,-0.013856,116565
2025-02-26 00:54:16.136936,sleep,9.856929,1.070208,-0.90022,-0.055158,0.023982,-0.014123,116684
2025-02-26 00:54:16.136936,sleep,9.842564,1.070208,-0.90022,-0.054625,0.02185,-0.014655,116766
2025-02-26 00:54:16.136936,sleep,9.832987,1.084573,-0.921768,-0.055158,0.023982,-0.013856,116801
2025-02-26 00:54:16.136936,sleep,9.837775,1.074997,-0.907402,-0.055691,0.023182,-0.014922,116794
2025-02-26 00:54:16.136936,sleep,9.859323,1.072602,-0.916979,-0.055424,0.023182,-0.015455,116774
2025-02-26 00:54:16.136936,sleep,9.842564,1.084573,-0.890643,-0.055424,0.023449,-0.014922,116811
2025-02-26 00:54:16.136936,sleep,9.832987,1.086968,-0.881066,-0.055158,0.020784,-0.015455,116856
2025-02-26 00:54:16.136936,sleep,9.837775,1.082179,-0.895431,-0.054891,0.023449,-0.015188,116930
2025-02-26 00:54:16.136936,sleep,9.840169,1.070208,-0.893037,-0.054625,0.022916,-0.015188,116976
2025-02-26 00:54:16.136936,sleep,9.849746,1.06542,-0.938527,-0.054625,0.023182,-0.014389,116955
2025-02-26 00:54:16.136936,sleep,9.847352,1.058237,-0.893037,-0.055691,0.022916,-0.014655,116965
2025-02-26 00:54:16.136936,sleep,9.844957,1.070208,-0.909797,-0.055424,0.023715,-0.014922,116945
2025-02-26 00:54:16.136936,sleep,9.85214,1.06542,-0.919373,-0.055158,0.023715,-0.014922,116971
2025-02-26 00:54:16.136936,sleep,9.844957,1.053449,-0.912191,-0.055424,0.022649,-0.014655,116942
2025-02-26 00:54:16.136936,sleep,9.840169,1.070208,-0.919373,-0.054891,0.023182,-0.014655,116941
2025-02-26 00:54:16.136936,sleep,9.840169,1.06542,-0.914585,-0.054891,0.022649,-0.013856,116945
2025-02-26 00:54:16.136936,sleep,9.82341,1.070208,-0.924162,-0.054891,0.023182,-0.013856,116965
2025-02-26 00:54:16.136936,sleep,9.856929,1.079785,-0.916979,-0.055424,0.022116,-0.014123,116942
2025-02-26 00:54:16.136936,sleep,9.859323,1.091756,-0.924162,-0.054891,0.023182,-0.014655,117144
2025-02-26 00:54:16.136936,sleep,9.840169,1.070208,-0.933739,-0.054092,0.02185,-0.013856,117110
2025-02-26 00:54:16.136936,sleep,9.832987,1.063026,-0.936133,-0.054625,0.021583,-0.015455,117120
2025-02-26 00:54:16.136936,sleep,9.835381,1.077391,-0.916979,-0.055158,0.023182,-0.014655,117158
2025-02-26 00:54:16.136936,sleep,9.85214,1.086968,-0.916979,-0.055691,0.023449,-0.013856,117168
2025-02-26 00:54:16.136936,sleep,9.847352,1.06542,-0.914585,-0.054625,0.021583,-0.014655,117222
2025-02-26 00:54:16.136936,sleep,9.842564,1.077391,-0.90022,-0.055424,0.022649,-0.014655,117277
2025-02-26 00:54:16.136936,sleep,9.85214,1.067814,-0.907402,-0.054891,0.022649,-0.015455,117269
2025-02-26 00:54:16.136936,sleep,9.849746,1.063026,-0.914585,-0.054891,0.022383,-0.014655,117223
2025-02-26 00:54:16.136936,sleep,9.835381,1.055843,-0.916979,-0.055158,0.024781,-0.014655,117191
2025-02-26 00:54:16.136936,sleep,9.856929,1.06542,-0.895431,-0.054092,0.022383,-0.015455,117200
2025-02-26 00:54:16.136936,sleep,9.856929,1.072602,-0.902614,-0.054625,0.019985,-0.014922,117062
2025-02-26 00:54:16.136936,sleep,9.828198,1.077391,-0.916979,-0.054891,0.022116,-0.014655,116716
2025-02-26 00:54:16.136936,sleep,9.828198,1.079785,-0.907402,-0.055158,0.022916,-0.015188,116282
2025-02-26 00:54:16.136936,sleep,9.864111,1.072602,-0.905008,-0.055957,0.023715,-0.014389,115802
2025-02-26 00:54:16.136936,sleep,9.856929,1.072602,-0.895431,-0.055424,0.022383,-0.014389,115453
2025-02-26 00:54:16.136936,sleep,9.840169,1.067814,-0.893037,-0.054358,0.022383,-0.014389,115202
2025-02-26 00:54:16.136936,sleep,9.842564,1.072602,-0.914585,-0.054891,0.021583,-0.014123,115158
2025-02-26 00:54:16.136936,sleep,9.856929,1.089362,-0.905008,-0.054358,0.020518,-0.014123,115175
2025-02-26 00:54:16.136936,sleep,9.840169,1.077391,-0.907402,-0.054891,0.020518,-0.014922,115245
2025-02-26 00:54:16.136936,sleep,9.856929,1.074997,-0.933739,-0.054625,0.022383,-0.015455,115389
2025-02-26 00:54:16.136936,sleep,9.859323,1.079785,-0.895431,-0.054358,0.023449,-0.014123,115491
2025-02-26 00:54:16.136936,sleep,9.849746,1.063026,-0.885855,-0.054625,0.023715,-0.013057,115638
2025-02-26 00:54:16.136936,sleep,9.837775,1.067814,-0.914585,-0.054891,0.023982,-0.014389,115787
2025-02-26 00:54:16.136936,sleep,9.844957,1.058237,-0.871489,-0.055691,0.02185,-0.014123,115856
2025-02-26 00:54:16.136936,sleep,9.832987,1.06542,-0.873884,-0.055158,0.023449,-0.014655,115970
2025-02-26 00:54:16.136936,sleep,9.842564,1.058237,-0.916979,-0.056757,0.024248,-0.013856,116001
2025-02-26 00:54:16.136936,sleep,9.842564,1.055843,-0.893037,-0.055158,0.022649,-0.014123,116157
2025-02-26 00:54:16.136936,sleep,9.847352,1.070208,-0.914585,-0.054358,0.022916,-0.015188,116278
2025-02-26 00:54:16.136936,sleep,9.849746,1.082179,-0.916979,-0.055158,0.021051,-0.015455,116384
2025-02-26 00:54:16.136936,sleep,9.842564,1.067814,-0.907402,-0.055158,0.021317,-0.015188,116328
2025-02-26 00:54:16.136936,sleep,9.842564,1.063026,-0.924162,-0.055957,0.022649,-0.014389,116350
2025-02-26 00:54:16.136936,sleep,9.847352,1.070208,-0.916979,-0.055424,0.023715,-0.014655,116244
2025-02-26 00:54:16.136936,sleep,9.842564,1.058237,-0.921768,-0.055424,0.022916,-0.014922,116159
2025-02-26 00:54:16.136936,sleep,9.85214,1.077391,-0.890643,-0.055957,0.022916,-0.015188,116109
2025-02-26 00:54:16.136936,sleep,9.842564,1.06542,-0.885855,-0.054625,0.022383,-0.013856,116114
2025-02-26 00:54:16.136936,sleep,9.854534,1.072602,-0.924162,-0.054625,0.023449,-0.013856,116145
2025-02-26 00:54:16.136936,sleep,9.837775,1.079785,-0.924162,-0.054891,0.023715,-0.014123,116164
2025-02-26 00:54:16.136936,sleep,9.842564,1.072602,-0.907402,-0.055158,0.023182,-0.014123,116122
2025-02-26 00:54:16.136936,sleep,9.856929,1.058237,-0.905008,-0.054092,0.023715,-0.014922,116141
2025-02-26 00:54:16.136936,sleep,9.847352,1.06542,-0.890643,-0.055158,0.024248,-0.014922,116191
2025-02-26 00:54:16.136936,sleep,9.832987,1.079785,-0.914585,-0.055158,0.024781,-0.014123,116227
2025-02-26 00:54:16.136936,sleep,9.840169,1.055843,-0.919373,-0.055691,0.024248,-0.014123,116249
2025-02-26 00:54:16.136936,sleep,9.861717,1.077391,-0.92895,-0.055158,0.025047,-0.014123,116305
2025-02-26 00:54:16.136936,sleep,9.844957,1.067814,-0.909797,-0.054358,0.023449,-0.014123,116358
2025-02-26 00:54:16.136936,sleep,9.856929,1.074997,-0.890643,-0.055158,0.023449,-0.014123,116227
2025-02-26 00:54:16.136936,sleep,9.837775,1.101333,-0.902614,-0.055691,0.022916,-0.014389,116499
2025-02-26 00:54:16.136936,sleep,9.85214,1.09415,-0.909797,-0.054891,0.022916,-0.014922,116621
2025-02-26 00:54:16.136936,sleep,9.85214,1.106121,-0.916979,-0.055424,0.022116,-0.015188,116665
2025-02-26 00:54:16.136936,sleep,9.85214,1.077391,-0.924162,-0.055424,0.02185,-0.015188,116684
2025-02-26 00:54:16.136936,sleep,9.849746,1.058237,-0.921768,-0.055691,0.022116,-0.015188,116743
2025-02-26 00:54:16.136936,sleep,9.847352,1.077391,-0.885855,-0.054092,0.022383,-0.014922,116781
2025-02-26 00:54:16.136936,sleep,9.868899,1.079785,-0.916979,-0.054092,0.02185,-0.014123,116913
2025-02-26 00:54:16.136936,sleep,9.864111,1.070208,-0.893037,-0.055957,0.022649,-0.013856,116953
2025-02-26 00:54:16.136936,sleep,9.854534,1.074997,-0.926556,-0.055424,0.023182,-0.014123,116945
2025-02-26 00:54:16.136936,sleep,9.837775,1.077391,-0.893037,-0.055158,0.022916,-0.014123,116917
2025-02-26 00:54:16.136936,sleep,9.837775,1.06542,-0.909797,-0.055158,0.023182,-0.014655,116871
2025-02-26 00:54:16.136936,sleep,9.859323,1.079785,-0.905008,-0.054625,0.022116,-0.014389,116901
2025-02-26 00:54:16.136936,sleep,9.844957,1.082179,-0.936133,-0.055691,0.021317,-0.013856,116929
2025-02-26 00:54:16.136936,sleep,9.849746,1.055843,-0.895431,-0.055158,0.022383,-0.013856,116969
2025-02-26 00:54:16.136936,sleep,9.866506,1.09415,-0.92895,-0.055957,0.022916,-0.013856,116934
2025-02-26 00:54:16.136936,sleep,9.840169,1.082179,-0.897826,-0.054625,0.023982,-0.013856,116935
2025-02-26 00:54:16.136936,sleep,9.828198,1.074997,-0.869095,-0.055158,0.023449,-0.014389,116946
2025-02-26 00:54:16.136936,sleep,9.842564,1.074997,-0.885855,-0.055158,0.022916,-0.014389,116933
