Timestamp,Label,AccelX,AccelY,AccelZ,GyroX,GyroY,GyroZ,IR
2025-02-26 01:55:33.454299,sleep,9.65821,1.678335,-1.278504,-0.053559,0.023982,-0.014922,43041
2025-02-26 01:55:33.454299,sleep,9.655815,1.651999,-1.288081,-0.054358,0.023982,-0.014922,42975
2025-02-26 01:55:33.454299,sleep,9.682152,1.637634,-1.283292,-0.054358,0.023449,-0.013856,42987
2025-02-26 01:55:33.454299,sleep,9.667787,1.651999,-1.276109,-0.054625,0.025047,-0.014123,42985
2025-02-26 01:55:33.454299,sleep,9.667787,1.668759,-1.271321,-0.054625,0.023715,-0.013323,43062
2025-02-26 01:55:33.454299,sleep,9.65821,1.666364,-1.278504,-0.053825,0.02558,-0.014123,43104
2025-02-26 01:55:33.454299,sleep,9.65821,1.651999,-1.278504,-0.054092,0.024781,-0.01359,43135
2025-02-26 01:55:33.454299,sleep,9.667787,1.659182,-1.266533,-0.055158,0.024515,-0.014389,43153
2025-02-26 01:55:33.454299,sleep,9.674969,1.661576,-1.256956,-0.054358,0.022383,-0.014655,43159
2025-02-26 01:55:33.454299,sleep,9.672575,1.683124,-1.256956,-0.054092,0.023982,-0.013856,43136
2025-02-26 01:55:33.454299,sleep,9.67018,1.673547,-1.266533,-0.054891,0.023982,-0.014655,43225
2025-02-26 01:55:33.454299,sleep,9.677363,1.66397,-1.297657,-0.053559,0.023982,-0.014123,43237
2025-02-26 01:55:33.454299,sleep,9.679757,1.637634,-1.268927,-0.054358,0.022916,-0.014389,43257
2025-02-26 01:55:33.454299,sleep,9.646238,1.656788,-1.25935,-0.054891,0.024781,-0.014655,43215
2025-02-26 01:55:33.454299,sleep,9.682152,1.651999,-1.268927,-0.054891,0.024248,-0.014389,43173
2025-02-26 01:55:33.454299,sleep,9.682152,1.678335,-1.290475,-0.054891,0.023715,-0.014922,43140
2025-02-26 01:55:33.454299,sleep,9.660604,1.661576,-1.276109,-0.053825,0.023449,-0.015188,43175
2025-02-26 01:55:33.454299,sleep,9.67018,1.651999,-1.254562,-0.054891,0.023715,-0.013856,43192
2025-02-26 01:55:33.454299,sleep,9.65821,1.644817,-1.295263,-0.055158,0.024515,-0.014922,43247
2025-02-26 01:55:33.454299,sleep,9.672575,1.647211,-1.271321,-0.056224,0.024248,-0.01359,43219
2025-02-26 01:55:33.454299,sleep,9.679757,1.659182,-1.290475,-0.054092,0.025047,-0.013856,43223
2025-02-26 01:55:33.454299,sleep,9.674969,1.661576,-1.278504,-0.054891,0.024781,-0.01359,43194
2025-02-26 01:55:33.454299,sleep,9.67018,1.656788,-1.266533,-0.054092,0.024248,-0.014123,43185
2025-02-26 01:55:33.454299,sleep,9.662998,1.654393,-1.278504,-0.055691,0.024781,-0.013856,43215
2025-02-26 01:55:33.454299,sleep,9.701305,1.640028,-1.271321,-0.054891,0.024781,-0.013323,43188
2025-02-26 01:55:33.454299,sleep,9.698911,1.642422,-1.261744,-0.054092,0.023182,-0.015455,43419
2025-02-26 01:55:33.454299,sleep,9.679757,1.656788,-1.266533,-0.052227,0.018386,-0.014922,43201
2025-02-26 01:55:33.454299,sleep,9.672575,1.668759,-1.261744,-0.05276,0.019452,-0.014655,43219
2025-02-26 01:55:33.454299,sleep,9.679757,1.654393,-1.285686,-0.055957,0.028245,-0.013057,43188
2025-02-26 01:55:33.454299,sleep,9.706094,1.671153,-1.290475,-0.055691,0.027712,-0.014655,43280
2025-02-26 01:55:33.454299,sleep,9.684546,1.659182,-1.261744,-0.056757,0.02185,-0.016254,43201
2025-02-26 01:55:33.454299,sleep,9.68694,1.666364,-1.268927,-0.05649,0.016254,-0.018652,43266
2025-02-26 01:55:33.454299,sleep,9.662998,1.666364,-1.273715,-0.055158,0.01279,-0.018919,43287
2025-02-26 01:55:33.454299,sleep,9.667787,1.647211,-1.302446,-0.055158,0.010925,-0.019452,43209
2025-02-26 01:55:33.454299,sleep,9.648633,1.642422,-1.290475,-0.054358,0.018119,-0.017054,43125
2025-02-26 01:55:33.454299,sleep,9.667787,1.649605,-1.264138,-0.05649,0.025047,-0.015988,43071
2025-02-26 01:55:33.454299,sleep,9.651027,1.671153,-1.290475,-0.055691,0.024781,-0.015455,43042
2025-02-26 01:55:33.454299,sleep,9.65821,1.654393,-1.273715,-0.054891,0.022116,-0.013323,43075
2025-02-26 01:55:33.454299,sleep,9.679757,1.668759,-1.285686,-0.055158,0.024515,-0.013856,43114
2025-02-26 01:55:33.454299,sleep,9.662998,1.673547,-1.268927,-0.054891,0.027446,-0.01359,43152
2025-02-26 01:55:33.454299,sleep,9.672575,1.678335,-1.244985,-0.055957,0.025314,-0.013856,43240
2025-02-26 01:55:33.454299,sleep,9.682152,1.656788,-1.264138,-0.055691,0.025047,-0.013856,43338
2025-02-26 01:55:33.454299,sleep,9.667787,1.651999,-1.252167,-0.054891,0.025047,-0.014123,43380
2025-02-26 01:55:33.454299,sleep,9.672575,1.666364,-1.233014,-0.053559,0.02185,-0.015721,43294
2025-02-26 01:55:33.454299,sleep,9.65821,1.66397,-1.283292,-0.054625,0.020784,-0.013856,43319
2025-02-26 01:55:33.454299,sleep,9.677363,1.656788,-1.266533,-0.054358,0.03011,-0.013323,43376
2025-02-26 01:55:33.454299,sleep,9.674969,1.649605,-1.288081,-0.054358,0.02558,-0.014389,43385
2025-02-26 01:55:33.454299,sleep,9.672575,1.656788,-1.25935,-0.055158,0.023182,-0.013323,43363
2025-02-26 01:55:33.454299,sleep,9.674969,1.661576,-1.276109,-0.055957,0.026646,-0.01359,43479
2025-02-26 01:55:33.454299,sleep,9.679757,1.651999,-1.268927,-0.055691,0.027179,-0.01359,43557
2025-02-26 01:55:33.454299,sleep,9.67018,1.659182,-1.268927,-0.056224,0.022649,-0.014389,43552
2025-02-26 01:55:33.459725,sleep,9.674969,1.659182,-1.288081,-0.055424,0.022383,-0.01359,43653
2025-02-26 01:55:33.459725,sleep,9.662998,1.661576,-1.264138,-0.055424,0.025047,-0.014655,43479
2025-02-26 01:55:33.459725,sleep,9.665392,1.649605,-1.266533,-0.055424,0.023182,-0.014922,43699
2025-02-26 01:55:33.459725,sleep,9.689334,1.649605,-1.264138,-0.055957,0.02185,-0.015188,43697
2025-02-26 01:55:33.459725,sleep,9.67018,1.671153,-1.242591,-0.054625,0.024248,-0.014123,43756
2025-02-26 01:55:33.459725,sleep,9.684546,1.661576,-1.261744,-0.054092,0.023982,-0.014655,43779
2025-02-26 01:55:33.459725,sleep,9.691729,1.661576,-1.256956,-0.054625,0.022916,-0.014123,43835
2025-02-26 01:55:33.459725,sleep,9.677363,1.659182,-1.280898,-0.054891,0.025047,-0.013856,43861
2025-02-26 01:55:33.459725,sleep,9.672575,1.661576,-1.261744,-0.055691,0.027179,-0.013856,43835
2025-02-26 01:55:33.459725,sleep,9.674969,1.654393,-1.252167,-0.055424,0.02558,-0.013856,43838
2025-02-26 01:55:33.459725,sleep,9.672575,1.659182,-1.25935,-0.055158,0.025047,-0.014123,43824
2025-02-26 01:55:33.459725,sleep,9.665392,1.651999,-1.240196,-0.054625,0.024781,-0.013856,43869
2025-02-26 01:55:33.459725,sleep,9.68694,1.654393,-1.254562,-0.054625,0.024515,-0.014389,43942
2025-02-26 01:55:33.459725,sleep,9.682152,1.649605,-1.273715,-0.054358,0.023715,-0.014655,43981
2025-02-26 01:55:33.459725,sleep,9.694122,1.649605,-1.309628,-0.054891,0.025047,-0.013856,43961
2025-02-26 01:55:33.459725,sleep,9.662998,1.651999,-1.278504,-0.054891,0.024515,-0.014389,43969
2025-02-26 01:55:33.459725,sleep,9.682152,1.659182,-1.25935,-0.055424,0.025314,-0.01359,43996
2025-02-26 01:55:33.459725,sleep,9.64145,1.66397,-1.268927,-0.055424,0.024781,-0.013856,44016
2025-02-26 01:55:33.459725,sleep,9.672575,1.649605,-1.261744,-0.055424,0.025047,-0.012257,43999
2025-02-26 01:55:33.459725,sleep,9.682152,1.661576,-1.278504,-0.055424,0.023449,-0.013057,44037
2025-02-26 01:55:33.459725,sleep,9.672575,1.651999,-1.276109,-0.054625,0.024781,-0.013323,44084
2025-02-26 01:55:33.459725,sleep,9.67018,1.656788,-1.273715,-0.054625,0.024781,-0.01359,44016
2025-02-26 01:55:33.459725,sleep,9.67018,1.675941,-1.266533,-0.054625,0.024248,-0.014123,44217
2025-02-26 01:55:33.459725,sleep,9.674969,1.668759,-1.266533,-0.054625,0.022383,-0.013057,44262
2025-02-26 01:55:33.459725,sleep,9.662998,1.666364,-1.285686,-0.054358,0.023449,-0.01359,44084
2025-02-26 01:55:33.459725,sleep,9.662998,1.661576,-1.283292,-0.054891,0.022649,-0.013856,44317
2025-02-26 01:55:33.459725,sleep,9.660604,1.649605,-1.290475,-0.055158,0.023449,-0.014123,44352
2025-02-26 01:55:33.459725,sleep,9.674969,1.647211,-1.264138,-0.054891,0.025847,-0.014123,44405
2025-02-26 01:55:33.459725,sleep,9.677363,1.632846,-1.266533,-0.055158,0.024515,-0.014389,44452
2025-02-26 01:55:33.459725,sleep,9.689334,1.661576,-1.244985,-0.055424,0.024515,-0.013856,44502
2025-02-26 01:55:33.459725,sleep,9.667787,1.659182,-1.268927,-0.055691,0.024515,-0.01359,44472
2025-02-26 01:55:33.459725,sleep,9.665392,1.659182,-1.278504,-0.055957,0.024781,-0.01359,44484
2025-02-26 01:55:33.459725,sleep,9.660604,1.659182,-1.280898,-0.055691,0.024248,-0.013057,44445
2025-02-26 01:55:33.459725,sleep,9.679757,1.66397,-1.242591,-0.055158,0.026646,-0.013057,44480
2025-02-26 01:55:33.459725,sleep,9.677363,1.656788,-1.25935,-0.054092,0.022116,-0.014123,44497
2025-02-26 01:55:33.459725,sleep,9.684546,1.668759,-1.235408,-0.053559,0.020251,-0.014123,44575
2025-02-26 01:55:33.459725,sleep,9.653421,1.661576,-1.283292,-0.05276,0.020518,-0.014922,44595
2025-02-26 01:55:33.459725,sleep,9.677363,1.656788,-1.283292,-0.055158,0.025847,-0.01359,44532
2025-02-26 01:55:33.459725,sleep,9.684546,1.666364,-1.271321,-0.055424,0.03091,-0.013323,44509
2025-02-26 01:55:33.459725,sleep,9.706094,1.673547,-1.254562,-0.056224,0.025314,-0.014123,44475
2025-02-26 01:55:33.459725,sleep,9.694122,1.661576,-1.300052,-0.054891,0.017853,-0.017054,44426
2025-02-26 01:55:33.459725,sleep,9.701305,1.66397,-1.264138,-0.055691,0.013856,-0.018652,44327
2025-02-26 01:55:33.459725,sleep,9.674969,1.654393,-1.273715,-0.054625,0.010392,-0.019718,44239
2025-02-26 01:55:33.459725,sleep,9.65821,1.654393,-1.278504,-0.054891,0.011724,-0.018119,44089
2025-02-26 01:55:33.459725,sleep,9.64145,1.654393,-1.271321,-0.055957,0.019985,-0.016254,43958
2025-02-26 01:55:33.459725,sleep,9.677363,1.649605,-1.261744,-0.055158,0.025314,-0.015988,43958
2025-02-26 01:55:33.459725,sleep,9.67018,1.661576,-1.278504,-0.055158,0.022116,-0.015455,43936
2025-02-26 01:55:33.459725,sleep,9.672575,1.647211,-1.288081,-0.054092,0.022383,-0.014123,43993
2025-02-26 01:55:33.459725,sleep,9.679757,1.668759,-1.276109,-0.055158,0.025847,-0.014123,43992
2025-02-26 01:55:33.459725,sleep,9.67018,1.651999,-1.266533,-0.055424,0.026913,-0.013856,43911
2025-02-26 01:55:33.459725,sleep,9.665392,1.671153,-1.271321,-0.055691,0.023715,-0.013856,44105
2025-02-26 01:55:33.459725,sleep,9.667787,1.654393,-1.254562,-0.054625,0.023982,-0.014655,44176
2025-02-26 01:55:33.459725,sleep,9.689334,1.659182,-1.264138,-0.053825,0.022383,-0.015188,44071
2025-02-26 01:55:33.459725,sleep,9.646238,1.649605,-1.256956,-0.055158,0.018652,-0.015455,44027
2025-02-26 01:55:33.459725,sleep,9.67018,1.690306,-1.271321,-0.053825,0.026913,-0.014389,43988
2025-02-26 01:55:33.459725,sleep,9.691729,1.647211,-1.276109,-0.054625,0.024515,-0.014123,43963
2025-02-26 01:55:33.459725,sleep,9.662998,1.654393,-1.252167,-0.055424,0.020784,-0.015188,43985
2025-02-26 01:55:33.459725,sleep,9.665392,1.661576,-1.302446,-0.055158,0.024781,-0.013323,44042
2025-02-26 01:55:33.459725,sleep,9.689334,1.661576,-1.264138,-0.055691,0.025847,-0.014389,44092
2025-02-26 01:55:33.459725,sleep,9.672575,1.651999,-1.25935,-0.055691,0.022383,-0.014389,44035
2025-02-26 01:55:33.459725,sleep,9.689334,1.654393,-1.247379,-0.05649,0.022116,-0.01359,44004
2025-02-26 01:55:33.459725,sleep,9.689334,1.690306,-1.266533,-0.055957,0.023715,-0.014922,43986
2025-02-26 01:55:33.459725,sleep,9.674969,1.66397,-1.256956,-0.054891,0.022116,-0.014922,43931
2025-02-26 01:55:33.459725,sleep,9.677363,1.656788,-1.240196,-0.054358,0.021051,-0.014655,43864
2025-02-26 01:55:33.459725,sleep,9.679757,1.661576,-1.244985,-0.053559,0.023182,-0.015188,43822
2025-02-26 01:55:33.459725,sleep,9.665392,1.640028,-1.268927,-0.054092,0.022649,-0.015721,43792
2025-02-26 01:55:33.459725,sleep,9.667787,1.659182,-1.273715,-0.053559,0.022116,-0.014922,43803
2025-02-26 01:55:33.459725,sleep,9.665392,1.666364,-1.302446,-0.054625,0.022383,-0.014922,43853
2025-02-26 01:55:33.459725,sleep,9.691729,1.647211,-1.252167,-0.055424,0.024515,-0.014389,43831
2025-02-26 01:55:33.459725,sleep,9.684546,1.651999,-1.288081,-0.053825,0.025047,-0.014655,43792
2025-02-26 01:55:33.459725,sleep,9.679757,1.66397,-1.25935,-0.054891,0.023715,-0.013856,43805
2025-02-26 01:55:33.459725,sleep,9.672575,1.647211,-1.276109,-0.054625,0.023182,-0.013856,43817
2025-02-26 01:55:33.459725,sleep,9.677363,1.668759,-1.285686,-0.054625,0.023449,-0.014389,43820
2025-02-26 01:55:33.459725,sleep,9.660604,1.66397,-1.297657,-0.053825,0.023449,-0.014655,43837
2025-02-26 01:55:33.459725,sleep,9.679757,1.649605,-1.25935,-0.054625,0.022916,-0.014655,43860
2025-02-26 01:55:33.459725,sleep,9.682152,1.651999,-1.271321,-0.055158,0.023982,-0.014123,43786
2025-02-26 01:55:33.459725,sleep,9.67018,1.668759,-1.280898,-0.055424,0.023182,-0.014922,43758
2025-02-26 01:55:33.459725,sleep,9.662998,1.659182,-1.264138,-0.054358,0.022649,-0.014389,43646
2025-02-26 01:55:33.459725,sleep,9.696517,1.668759,-1.268927,-0.054358,0.023449,-0.014389,43593
2025-02-26 01:55:33.459725,sleep,9.684546,1.671153,-1.266533,-0.055424,0.023449,-0.014389,43610
2025-02-26 01:55:33.459725,sleep,9.677363,1.659182,-1.247379,-0.054625,0.023182,-0.014123,43650
2025-02-26 01:55:33.459725,sleep,9.667787,1.661576,-1.273715,-0.054358,0.023182,-0.014123,43640
2025-02-26 01:55:33.459725,sleep,9.682152,1.651999,-1.278504,-0.054358,0.023715,-0.014389,43577
2025-02-26 01:55:33.459725,sleep,9.665392,1.673547,-1.261744,-0.055424,0.024248,-0.014389,43552
2025-02-26 01:55:33.459725,sleep,9.65821,1.671153,-1.254562,-0.053825,0.022916,-0.013323,43533
2025-02-26 01:55:33.459725,sleep,9.662998,1.66397,-1.256956,-0.054891,0.023182,-0.01279,43547
2025-02-26 01:55:33.459725,sleep,9.667787,1.66397,-1.240196,-0.055158,0.024248,-0.014123,43468
2025-02-26 01:55:33.459725,sleep,9.667787,1.678335,-1.256956,-0.055158,0.023449,-0.014389,43510
2025-02-26 01:55:33.459725,sleep,9.651027,1.644817,-1.283292,-0.053825,0.023449,-0.014655,43485
2025-02-26 01:55:33.459725,sleep,9.653421,1.66397,-1.261744,-0.055424,0.024515,-0.014123,43525
2025-02-26 01:55:33.459725,sleep,9.677363,1.649605,-1.280898,-0.055158,0.024248,-0.015455,43561
2025-02-26 01:55:33.459725,sleep,9.662998,1.647211,-1.23062,-0.055158,0.025047,-0.014655,43616
2025-02-26 01:55:33.459725,sleep,9.662998,1.651999,-1.266533,-0.055158,0.022916,-0.013856,43647
2025-02-26 01:55:33.459725,sleep,9.67018,1.649605,-1.242591,-0.055158,0.024248,-0.014389,43645
2025-02-26 01:55:33.459725,sleep,9.689334,1.661576,-1.285686,-0.054358,0.023449,-0.014389,43707
2025-02-26 01:55:33.459725,sleep,9.682152,1.651999,-1.261744,-0.053292,0.020784,-0.014655,43738
2025-02-26 01:55:33.459725,sleep,9.677363,1.647211,-1.271321,-0.05276,0.018652,-0.016254,43726
2025-02-26 01:55:33.459725,sleep,9.667787,1.668759,-1.316811,-0.054092,0.020518,-0.014922,43682
2025-02-26 01:55:33.459725,sleep,9.682152,1.647211,-1.240196,-0.055691,0.029577,-0.014389,43616
2025-02-26 01:55:33.459725,sleep,9.68694,1.651999,-1.25935,-0.055424,0.027446,-0.014655,43515
2025-02-26 01:55:33.459725,sleep,9.674969,1.66397,-1.254562,-0.056757,0.018652,-0.016787,43538
2025-02-26 01:55:33.459725,sleep,9.684546,1.659182,-1.261744,-0.055691,0.013856,-0.018119,43397
2025-02-26 01:55:33.459725,sleep,9.696517,1.656788,-1.240196,-0.056224,0.011458,-0.019985,43357
2025-02-26 01:55:33.459725,sleep,9.674969,1.659182,-1.285686,-0.055158,0.011191,-0.020518,43202
2025-02-26 01:55:33.459725,sleep,9.643845,1.649605,-1.288081,-0.056224,0.017853,-0.016521,43035
2025-02-26 01:55:33.459725,sleep,9.64145,1.678335,-1.271321,-0.056224,0.02558,-0.016254,42955
2025-02-26 01:55:33.459725,sleep,9.662998,1.671153,-1.283292,-0.054625,0.022649,-0.015188,42916
2025-02-26 01:55:33.459725,sleep,9.665392,1.668759,-1.283292,-0.054625,0.021317,-0.014123,42940
2025-02-26 01:55:33.459725,sleep,9.662998,1.647211,-1.268927,-0.055158,0.024781,-0.013323,42904
2025-02-26 01:55:33.459725,sleep,9.665392,1.637634,-1.25935,-0.055424,0.027712,-0.014389,42918
2025-02-26 01:55:33.459725,sleep,9.651027,1.651999,-1.276109,-0.055957,0.024248,-0.013323,42933
2025-02-26 01:55:33.459725,sleep,9.665392,1.649605,-1.280898,-0.055957,0.024248,-0.01359,43006
2025-02-26 01:55:33.459725,sleep,9.67018,1.642422,-1.264138,-0.054625,0.025047,-0.014389,43015
2025-02-26 01:55:33.459725,sleep,9.660604,1.656788,-1.288081,-0.053292,0.018919,-0.015188,42961
2025-02-26 01:55:33.459725,sleep,9.646238,1.659182,-1.297657,-0.054625,0.02185,-0.014389,43022
2025-02-26 01:55:33.459725,sleep,9.674969,1.649605,-1.280898,-0.053292,0.028511,-0.013856,43042
2025-02-26 01:55:33.459725,sleep,9.67018,1.644817,-1.271321,-0.055424,0.024248,-0.015188,43026
2025-02-26 01:55:33.459725,sleep,9.672575,1.659182,-1.276109,-0.055424,0.022116,-0.013856,43107
2025-02-26 01:55:33.459725,sleep,9.689334,1.644817,-1.276109,-0.055957,0.02638,-0.013057,43168
2025-02-26 01:55:33.459725,sleep,9.696517,1.661576,-1.280898,-0.054891,0.025314,-0.014655,43201
2025-02-26 01:55:33.459725,sleep,9.677363,1.668759,-1.271321,-0.055158,0.02185,-0.014389,43149
2025-02-26 01:55:33.459725,sleep,9.674969,1.671153,-1.25935,-0.055158,0.025047,-0.014655,43091
2025-02-26 01:55:33.459725,sleep,9.696517,1.656788,-1.247379,-0.054625,0.024248,-0.014922,43057
2025-02-26 01:55:33.459725,sleep,9.67018,1.666364,-1.271321,-0.054358,0.023715,-0.014655,43032
2025-02-26 01:55:33.459725,sleep,9.667787,1.654393,-1.268927,-0.054625,0.020784,-0.015455,43001
2025-02-26 01:55:33.459725,sleep,9.684546,1.659182,-1.256956,-0.054625,0.024515,-0.014655,43024
2025-02-26 01:55:33.459725,sleep,9.665392,1.656788,-1.295263,-0.054891,0.024781,-0.014123,42960
2025-02-26 01:55:33.459725,sleep,9.665392,1.668759,-1.283292,-0.054891,0.022383,-0.014123,42988
2025-02-26 01:55:33.459725,sleep,9.672575,1.671153,-1.292869,-0.054358,0.025047,-0.013856,43003
2025-02-26 01:55:33.459725,sleep,9.653421,1.668759,-1.280898,-0.054358,0.02558,-0.01359,42985
2025-02-26 01:55:33.459725,sleep,9.665392,1.642422,-1.283292,-0.055691,0.024515,-0.014655,42967
2025-02-26 01:55:33.459725,sleep,9.674969,1.659182,-1.261744,-0.055957,0.023449,-0.014389,42981
2025-02-26 01:55:33.459725,sleep,9.672575,1.666364,-1.292869,-0.055158,0.023182,-0.014655,42996
2025-02-26 01:55:33.459725,sleep,9.67018,1.659182,-1.273715,-0.054358,0.022383,-0.014123,43004
2025-02-26 01:55:33.459725,sleep,9.662998,1.673547,-1.268927,-0.054092,0.021583,-0.014123,43096
2025-02-26 01:55:33.459725,sleep,9.68694,1.661576,-1.271321,-0.054092,0.023449,-0.013057,43117
2025-02-26 01:55:33.459725,sleep,9.667787,1.651999,-1.264138,-0.054891,0.025047,-0.013856,42996
2025-02-26 01:55:33.459725,sleep,9.667787,1.685518,-1.249773,-0.055424,0.024515,-0.015455,43130
2025-02-26 01:55:33.459725,sleep,9.653421,1.668759,-1.249773,-0.054625,0.024515,-0.014389,43123
2025-02-26 01:55:33.459725,sleep,9.662998,1.659182,-1.244985,-0.054358,0.024248,-0.014922,43219
2025-02-26 01:55:33.459725,sleep,9.674969,1.644817,-1.283292,-0.054891,0.024515,-0.014389,43235
2025-02-26 01:55:33.459725,sleep,9.660604,1.659182,-1.261744,-0.055957,0.024248,-0.013856,43282
2025-02-26 01:55:33.459725,sleep,9.660604,1.666364,-1.254562,-0.054625,0.023715,-0.015188,43242
2025-02-26 01:55:33.459725,sleep,9.677363,1.656788,-1.278504,-0.055158,0.023182,-0.014655,43214
2025-02-26 01:55:33.459725,sleep,9.667787,1.659182,-1.276109,-0.055424,0.022649,-0.013856,43156
2025-02-26 01:55:33.459725,sleep,9.672575,1.644817,-1.254562,-0.054891,0.024515,-0.014655,43162
2025-02-26 01:55:33.459725,sleep,9.660604,1.661576,-1.261744,-0.054891,0.025047,-0.014389,43205
2025-02-26 01:55:33.459725,sleep,9.674969,1.661576,-1.256956,-0.054625,0.024781,-0.014389,43223
2025-02-26 01:55:33.459725,sleep,9.710882,1.63524,-1.256956,-0.055158,0.023715,-0.01359,43267
2025-02-26 01:55:33.459725,sleep,9.662998,1.656788,-1.25935,-0.055424,0.024248,-0.014389,43241
2025-02-26 01:55:33.459725,sleep,9.682152,1.673547,-1.283292,-0.054625,0.023715,-0.013057,43401
2025-02-26 01:55:33.459725,sleep,9.67018,1.656788,-1.268927,-0.055158,0.025047,-0.013856,43392
2025-02-26 01:55:33.459725,sleep,9.672575,1.659182,-1.264138,-0.055158,0.025314,-0.013856,43400
2025-02-26 01:55:33.459725,sleep,9.655815,1.668759,-1.273715,-0.054891,0.025314,-0.012524,43472
2025-02-26 01:55:33.459725,sleep,9.660604,1.671153,-1.254562,-0.054891,0.023982,-0.01359,43437
2025-02-26 01:55:33.459725,sleep,9.682152,1.66397,-1.264138,-0.055158,0.025847,-0.013323,43537
2025-02-26 01:55:33.459725,sleep,9.67018,1.637634,-1.256956,-0.055158,0.023982,-0.014389,43627
2025-02-26 01:55:33.459725,sleep,9.679757,1.642422,-1.252167,-0.05276,0.020518,-0.014655,43680
2025-02-26 01:55:33.459725,sleep,9.662998,1.649605,-1.254562,-0.051694,0.018386,-0.014123,43715
2025-02-26 01:55:33.459725,sleep,9.677363,1.651999,-1.256956,-0.054358,0.023715,-0.01359,43683
2025-02-26 01:55:33.459725,sleep,9.679757,1.661576,-1.280898,-0.056224,0.031176,-0.01359,43718
2025-02-26 01:55:33.459725,sleep,9.703699,1.654393,-1.252167,-0.056757,0.026646,-0.014123,43728
2025-02-26 01:55:33.459725,sleep,9.698911,1.659182,-1.261744,-0.05649,0.019718,-0.015455,43658
2025-02-26 01:55:33.459725,sleep,9.672575,1.651999,-1.264138,-0.05649,0.015455,-0.017587,43680
2025-02-26 01:55:33.459725,sleep,9.67018,1.661576,-1.244985,-0.054891,0.013856,-0.017587,43625
2025-02-26 01:55:33.459725,sleep,9.655815,1.66397,-1.25935,-0.054625,0.011191,-0.018119,43530
2025-02-26 01:55:33.459725,sleep,9.655815,1.659182,-1.285686,-0.055424,0.018919,-0.016254,43544
2025-02-26 01:55:33.459725,sleep,9.672575,1.656788,-1.268927,-0.05649,0.025314,-0.015455,43520
2025-02-26 01:55:33.459725,sleep,9.660604,1.66397,-1.268927,-0.054891,0.023182,-0.014389,43513
2025-02-26 01:55:33.459725,sleep,9.679757,1.651999,-1.278504,-0.054625,0.021317,-0.01359,43565
2025-02-26 01:55:33.459725,sleep,9.677363,1.647211,-1.283292,-0.055158,0.025847,-0.012257,43648
2025-02-26 01:55:33.459725,sleep,9.674969,1.647211,-1.247379,-0.055424,0.026646,-0.014389,43734
2025-02-26 01:55:33.459725,sleep,9.665392,1.651999,-1.25935,-0.055158,0.026113,-0.013856,43783
2025-02-26 01:55:33.459725,sleep,9.679757,1.651999,-1.290475,-0.055424,0.024248,-0.013057,43876
2025-02-26 01:55:33.459725,sleep,9.682152,1.66397,-1.276109,-0.053825,0.024515,-0.015455,43869
2025-02-26 01:55:33.459725,sleep,9.672575,1.649605,-1.292869,-0.053026,0.019452,-0.016254,43741
2025-02-26 01:55:33.459725,sleep,9.660604,1.649605,-1.300052,-0.054891,0.023982,-0.013856,43779
2025-02-26 01:55:33.459725,sleep,9.674969,1.66397,-1.273715,-0.053825,0.028245,-0.013323,43870
2025-02-26 01:55:33.459725,sleep,9.67018,1.673547,-1.273715,-0.054358,0.024515,-0.013856,43892
2025-02-26 01:55:33.459725,sleep,9.653421,1.656788,-1.295263,-0.054358,0.023449,-0.012257,43925
2025-02-26 01:55:33.459725,sleep,9.68694,1.661576,-1.278504,-0.055957,0.027712,-0.01279,43955
2025-02-26 01:55:33.459725,sleep,9.655815,1.661576,-1.242591,-0.055424,0.026646,-0.01359,43980
2025-02-26 01:55:33.459725,sleep,9.67018,1.656788,-1.273715,-0.054625,0.022916,-0.014655,43986
2025-02-26 01:55:33.459725,sleep,9.684546,1.668759,-1.276109,-0.056224,0.023982,-0.014123,43998
2025-02-26 01:55:33.459725,sleep,9.665392,1.659182,-1.276109,-0.055158,0.025047,-0.014922,44004
2025-02-26 01:55:33.459725,sleep,9.648633,1.656788,-1.288081,-0.055158,0.022649,-0.014123,43950
2025-02-26 01:55:33.459725,sleep,9.672575,1.668759,-1.271321,-0.055691,0.021583,-0.014389,43970
2025-02-26 01:55:33.459725,sleep,9.672575,1.671153,-1.292869,-0.054891,0.023715,-0.014389,43978
2025-02-26 01:55:33.459725,sleep,9.67018,1.632846,-1.268927,-0.055158,0.023182,-0.014922,44060
2025-02-26 01:55:33.459725,sleep,9.655815,1.66397,-1.273715,-0.055158,0.022916,-0.014123,44098
2025-02-26 01:55:33.459725,sleep,9.679757,1.666364,-1.264138,-0.054358,0.024515,-0.013057,44168
2025-02-26 01:55:33.459725,sleep,9.667787,1.675941,-1.25935,-0.056224,0.026646,-0.01359,44174
2025-02-26 01:55:33.459725,sleep,9.665392,1.659182,-1.280898,-0.054625,0.026646,-0.013323,44217
2025-02-26 01:55:33.459725,sleep,9.67018,1.661576,-1.261744,-0.054358,0.024248,-0.014123,44293
2025-02-26 01:55:33.459725,sleep,9.662998,1.644817,-1.25935,-0.054092,0.023715,-0.014655,44340
2025-02-26 01:55:33.459725,sleep,9.684546,1.640028,-1.280898,-0.054891,0.023182,-0.013856,44353
2025-02-26 01:55:33.459725,sleep,9.67018,1.649605,-1.285686,-0.054625,0.023182,-0.014123,44345
2025-02-26 01:55:33.459725,sleep,9.667787,1.673547,-1.276109,-0.055691,0.023715,-0.01359,44323
2025-02-26 01:55:33.459725,sleep,9.679757,1.675941,-1.254562,-0.054891,0.023982,-0.01359,44313
2025-02-26 01:55:33.459725,sleep,9.696517,1.651999,-1.283292,-0.054891,0.02638,-0.014655,44347
2025-02-26 01:55:33.459725,sleep,9.679757,1.651999,-1.25935,-0.055957,0.024781,-0.01359,44369
2025-02-26 01:55:33.459725,sleep,9.674969,1.654393,-1.256956,-0.055158,0.024248,-0.014922,44429
2025-02-26 01:55:33.459725,sleep,9.662998,1.656788,-1.240196,-0.054891,0.023715,-0.01359,44421
2025-02-26 01:55:33.459725,sleep,9.653421,1.659182,-1.266533,-0.054358,0.023182,-0.014123,44434
2025-02-26 01:55:33.459725,sleep,9.68694,1.649605,-1.25935,-0.054891,0.023449,-0.013856,44424
2025-02-26 01:55:33.459725,sleep,9.672575,1.637634,-1.271321,-0.055158,0.023982,-0.015188,44438
2025-02-26 01:55:33.459725,sleep,9.662998,1.656788,-1.266533,-0.053825,0.023982,-0.013856,44465
2025-02-26 01:55:33.459725,sleep,9.667787,1.668759,-1.25935,-0.054891,0.023715,-0.014922,44442
2025-02-26 01:55:33.459725,sleep,9.662998,1.654393,-1.290475,-0.054092,0.023715,-0.013856,44439
2025-02-26 01:55:33.459725,sleep,9.689334,1.642422,-1.283292,-0.054358,0.023982,-0.013856,44451
2025-02-26 01:55:33.459725,sleep,9.684546,1.637634,-1.264138,-0.054891,0.025047,-0.015188,44432
2025-02-26 01:55:33.459725,sleep,9.68694,1.651999,-1.268927,-0.055691,0.023449,-0.013856,44516
2025-02-26 01:55:33.459725,sleep,9.677363,1.659182,-1.25935,-0.054891,0.024248,-0.013856,44532
2025-02-26 01:55:33.459725,sleep,9.665392,1.666364,-1.276109,-0.055424,0.02558,-0.014123,44508
2025-02-26 01:55:33.459725,sleep,9.679757,1.659182,-1.285686,-0.054891,0.025047,-0.014389,44497
2025-02-26 01:55:33.459725,sleep,9.682152,1.671153,-1.290475,-0.054358,0.022916,-0.014389,44532
2025-02-26 01:55:33.459725,sleep,9.691729,1.671153,-1.254562,-0.054625,0.024248,-0.01359,44629
2025-02-26 01:55:33.459725,sleep,9.665392,1.659182,-1.23062,-0.054358,0.022116,-0.014655,44610
2025-02-26 01:55:33.459725,sleep,9.665392,1.637634,-1.268927,-0.052227,0.018119,-0.015455,44625
2025-02-26 01:55:33.459725,sleep,9.684546,1.661576,-1.307234,-0.053026,0.020518,-0.015188,44548
2025-02-26 01:55:33.459725,sleep,9.660604,1.651999,-1.314417,-0.055158,0.026113,-0.013057,44492
2025-02-26 01:55:33.459725,sleep,9.684546,1.644817,-1.242591,-0.056757,0.030643,-0.013057,44468
2025-02-26 01:55:33.459725,sleep,9.689334,1.659182,-1.242591,-0.055957,0.025847,-0.014655,44468
2025-02-26 01:55:33.459725,sleep,9.691729,1.659182,-1.23062,-0.055691,0.01732,-0.01732,44481
2025-02-26 01:55:33.459725,sleep,9.672575,1.656788,-1.249773,-0.055158,0.011991,-0.018386,44431
2025-02-26 01:55:33.459725,sleep,9.694122,1.654393,-1.297657,-0.054891,0.011458,-0.018652,44300
2025-02-26 01:55:33.459725,sleep,9.684546,1.668759,-1.268927,-0.055424,0.010925,-0.018386,44136
2025-02-26 01:55:33.459725,sleep,9.660604,1.659182,-1.278504,-0.055691,0.019985,-0.015455,43991
2025-02-26 01:55:33.459725,sleep,9.667787,1.654393,-1.247379,-0.056757,0.025314,-0.016254,43873
2025-02-26 01:55:33.459725,sleep,9.648633,1.654393,-1.285686,-0.054358,0.022116,-0.014922,43805
2025-02-26 01:55:33.459725,sleep,9.655815,1.654393,-1.288081,-0.054625,0.02185,-0.013323,43840
2025-02-26 01:55:33.459725,sleep,9.662998,1.659182,-1.278504,-0.055158,0.025314,-0.014123,43892
2025-02-26 01:55:33.459725,sleep,9.665392,1.666364,-1.249773,-0.055424,0.02558,-0.014123,43982
2025-02-26 01:55:33.459725,sleep,9.665392,1.671153,-1.268927,-0.055691,0.024515,-0.013856,44019
2025-02-26 01:55:33.459725,sleep,9.689334,1.673547,-1.240196,-0.054358,0.025047,-0.014655,44080
2025-02-26 01:55:33.459725,sleep,9.684546,1.644817,-1.249773,-0.053292,0.023449,-0.015455,43892
2025-02-26 01:55:33.461732,sleep,9.662998,1.640028,-1.285686,-0.055158,0.019718,-0.015188,43969
2025-02-26 01:55:33.461732,sleep,9.684546,1.651999,-1.288081,-0.053825,0.026113,-0.014655,44009
2025-02-26 01:55:33.461732,sleep,9.674969,1.654393,-1.261744,-0.054092,0.024248,-0.014655,44049
2025-02-26 01:55:33.461732,sleep,9.679757,1.651999,-1.283292,-0.054092,0.022116,-0.015455,44051
2025-02-26 01:55:33.461732,sleep,9.682152,1.66397,-1.271321,-0.055424,0.022383,-0.013323,44094
2025-02-26 01:55:33.461732,sleep,9.674969,1.668759,-1.23062,-0.05649,0.026113,-0.013057,44048
2025-02-26 01:55:33.461732,sleep,9.677363,1.654393,-1.273715,-0.055424,0.022916,-0.014655,43979
2025-02-26 01:55:33.461732,sleep,9.65821,1.659182,-1.266533,-0.054891,0.022916,-0.014655,43965
2025-02-26 01:55:33.461732,sleep,9.677363,1.661576,-1.256956,-0.055424,0.022916,-0.014922,43961
2025-02-26 01:55:33.461732,sleep,9.67018,1.671153,-1.278504,-0.054891,0.023449,-0.015455,43931
2025-02-26 01:55:33.461732,sleep,9.679757,1.671153,-1.252167,-0.054358,0.021317,-0.014655,43928
2025-02-26 01:55:33.461732,sleep,9.684546,1.661576,-1.237802,-0.053559,0.023715,-0.014922,43880
2025-02-26 01:55:33.461732,sleep,9.665392,1.649605,-1.264138,-0.054358,0.023449,-0.015188,43821
