Timestamp,Label,AccelX,AccelY,AccelZ,GyroX,GyroY,GyroZ,IR
2025-02-26 01:51:10.892785,sleep,9.696517,1.616086,-1.192312,-0.055424,0.022916,-0.013323,54444
2025-02-26 01:51:10.892785,sleep,9.718064,1.613692,-1.201889,-0.053825,0.022916,-0.014123,54432
2025-02-26 01:51:10.892785,sleep,9.698911,1.613692,-1.194707,-0.053026,0.023982,-0.014655,54498
2025-02-26 01:51:10.892785,sleep,9.679757,1.625663,-1.197101,-0.055158,0.023182,-0.014389,54506
2025-02-26 01:51:10.892785,sleep,9.698911,1.628057,-1.158794,-0.055158,0.023449,-0.015188,54457
2025-02-26 01:51:10.892785,sleep,9.703699,1.623269,-1.225831,-0.055158,0.022916,-0.014389,54589
2025-02-26 01:51:10.892785,sleep,9.720459,1.616086,-1.221043,-0.054358,0.022649,-0.01359,54586
2025-02-26 01:51:10.892785,sleep,9.696517,1.616086,-1.194707,-0.054358,0.023182,-0.014123,54628
2025-02-26 01:51:10.892785,sleep,9.694122,1.613692,-1.192312,-0.054891,0.025047,-0.013856,54684
2025-02-26 01:51:10.892785,sleep,9.708488,1.608904,-1.192312,-0.055691,0.02638,-0.014655,54700
2025-02-26 01:51:10.892785,sleep,9.710882,1.608904,-1.197101,-0.055424,0.02638,-0.014655,54702
2025-02-26 01:51:10.892785,sleep,9.713276,1.61848,-1.194707,-0.053825,0.024515,-0.014389,54650
2025-02-26 01:51:10.892785,sleep,9.718064,1.613692,-1.204283,-0.054092,0.024248,-0.014123,54642
2025-02-26 01:51:10.892785,sleep,9.682152,1.616086,-1.182736,-0.055158,0.023182,-0.014123,54684
2025-02-26 01:51:10.892785,sleep,9.698911,1.620875,-1.180341,-0.05276,0.020518,-0.015721,54694
2025-02-26 01:51:10.892785,sleep,9.696517,1.637634,-1.192312,-0.052227,0.016521,-0.016521,54732
2025-02-26 01:51:10.892785,sleep,9.694122,1.632846,-1.240196,-0.053292,0.020251,-0.014389,54735
2025-02-26 01:51:10.892785,sleep,9.684546,1.601721,-1.264138,-0.056757,0.031176,-0.014389,54663
2025-02-26 01:51:10.892785,sleep,9.710882,1.611298,-1.177947,-0.057822,0.028778,-0.014922,54632
2025-02-26 01:51:10.899649,sleep,9.706094,1.611298,-1.180341,-0.056224,0.022649,-0.016521,54515
2025-02-26 01:51:10.899649,sleep,9.703699,1.616086,-1.16837,-0.055424,0.014389,-0.018386,54358
2025-02-26 01:51:10.899649,sleep,9.691729,1.606509,-1.247379,-0.055424,0.016787,-0.018119,54086
2025-02-26 01:51:10.899649,sleep,9.689334,1.628057,-1.206678,-0.054891,0.018119,-0.017853,53856
2025-02-26 01:51:10.899649,sleep,9.68694,1.606509,-1.18513,-0.056224,0.018919,-0.016787,53737
2025-02-26 01:51:10.899649,sleep,9.682152,1.61848,-1.218649,-0.055691,0.023182,-0.014655,53693
2025-02-26 01:51:10.899649,sleep,9.698911,1.630451,-1.177947,-0.055158,0.023449,-0.015188,53638
2025-02-26 01:51:10.899649,sleep,9.703699,1.630451,-1.209072,-0.055158,0.021317,-0.015455,53756
2025-02-26 01:51:10.899649,sleep,9.68694,1.630451,-1.189918,-0.054625,0.022649,-0.01359,53799
2025-02-26 01:51:10.899649,sleep,9.684546,1.620875,-1.206678,-0.054891,0.02558,-0.014389,53860
2025-02-26 01:51:10.899649,sleep,9.706094,1.61848,-1.204283,-0.055158,0.025847,-0.013856,53955
2025-02-26 01:51:10.899649,sleep,9.722853,1.625663,-1.221043,-0.055158,0.024248,-0.013856,53962
2025-02-26 01:51:10.899649,sleep,9.715671,1.640028,-1.199495,-0.054625,0.023982,-0.013856,54022
2025-02-26 01:51:10.899649,sleep,9.694122,1.630451,-1.204283,-0.053825,0.019985,-0.015455,53979
2025-02-26 01:51:10.899649,sleep,9.682152,1.63524,-1.199495,-0.054092,0.020784,-0.014123,53925
2025-02-26 01:51:10.899649,sleep,9.713276,1.606509,-1.206678,-0.054092,0.023982,-0.014123,53922
2025-02-26 01:51:10.899649,sleep,9.691729,1.632846,-1.206678,-0.055158,0.024515,-0.014389,53973
2025-02-26 01:51:10.899649,sleep,9.679757,1.623269,-1.218649,-0.054891,0.025047,-0.013057,54044
2025-02-26 01:51:10.899649,sleep,9.694122,1.620875,-1.225831,-0.056224,0.027979,-0.013057,54138
2025-02-26 01:51:10.899649,sleep,9.689334,1.63524,-1.175553,-0.055691,0.027979,-0.014389,54150
2025-02-26 01:51:10.899649,sleep,9.696517,1.620875,-1.182736,-0.054092,0.024515,-0.015188,54097
2025-02-26 01:51:10.899649,sleep,9.706094,1.604115,-1.204283,-0.054092,0.020784,-0.015188,54086
2025-02-26 01:51:10.899649,sleep,9.703699,1.623269,-1.218649,-0.054891,0.023449,-0.014389,54033
2025-02-26 01:51:10.899649,sleep,9.701305,1.601721,-1.189918,-0.053825,0.022916,-0.015188,53999
2025-02-26 01:51:10.899649,sleep,9.708488,1.61848,-1.211466,-0.054092,0.021317,-0.014389,53955
2025-02-26 01:51:10.899649,sleep,9.698911,1.611298,-1.199495,-0.054092,0.022916,-0.014922,53957
2025-02-26 01:51:10.899649,sleep,9.706094,1.628057,-1.216254,-0.054358,0.022649,-0.014922,54023
2025-02-26 01:51:10.899649,sleep,9.694122,1.613692,-1.189918,-0.054891,0.022116,-0.01359,53999
2025-02-26 01:51:10.899649,sleep,9.684546,1.616086,-1.201889,-0.053825,0.024248,-0.013323,54229
2025-02-26 01:51:10.899649,sleep,9.689334,1.625663,-1.228225,-0.054891,0.026113,-0.013323,54255
2025-02-26 01:51:10.899649,sleep,9.703699,1.632846,-1.211466,-0.055158,0.026646,-0.013856,54296
2025-02-26 01:51:10.899649,sleep,9.698911,1.63524,-1.175553,-0.054625,0.026913,-0.013057,54449
2025-02-26 01:51:10.899649,sleep,9.698911,1.623269,-1.192312,-0.054358,0.023715,-0.013057,54373
2025-02-26 01:51:10.899649,sleep,9.703699,1.628057,-1.204283,-0.054625,0.024515,-0.012524,54447
2025-02-26 01:51:10.899649,sleep,9.68694,1.611298,-1.21386,-0.053825,0.024248,-0.01359,54518
2025-02-26 01:51:10.899649,sleep,9.694122,1.604115,-1.201889,-0.055158,0.023715,-0.013856,54573
2025-02-26 01:51:10.899649,sleep,9.691729,1.623269,-1.187524,-0.054625,0.02558,-0.013323,54601
2025-02-26 01:51:10.899649,sleep,9.706094,1.611298,-1.194707,-0.055158,0.025847,-0.01279,54653
2025-02-26 01:51:10.899649,sleep,9.708488,1.616086,-1.209072,-0.054891,0.02558,-0.013323,54584
2025-02-26 01:51:10.899649,sleep,9.708488,1.620875,-1.225831,-0.054625,0.024515,-0.013856,54623
2025-02-26 01:51:10.899649,sleep,9.696517,1.613692,-1.194707,-0.054891,0.022916,-0.014123,54640
2025-02-26 01:51:10.899649,sleep,9.696517,1.61848,-1.225831,-0.055424,0.023715,-0.014655,54727
2025-02-26 01:51:10.899649,sleep,9.694122,1.613692,-1.209072,-0.054092,0.024248,-0.014922,54746
2025-02-26 01:51:10.899649,sleep,9.67018,1.630451,-1.187524,-0.055158,0.024248,-0.013856,54690
2025-02-26 01:51:10.899649,sleep,9.689334,1.611298,-1.216254,-0.055158,0.02558,-0.013856,54688
2025-02-26 01:51:10.899649,sleep,9.682152,1.608904,-1.21386,-0.054891,0.023982,-0.013323,54713
2025-02-26 01:51:10.899649,sleep,9.68694,1.613692,-1.199495,-0.055691,0.025047,-0.014655,54735
2025-02-26 01:51:10.899649,sleep,9.674969,1.611298,-1.189918,-0.055691,0.023982,-0.014389,54789
2025-02-26 01:51:10.899649,sleep,9.708488,1.628057,-1.206678,-0.055158,0.025314,-0.01359,54750
2025-02-26 01:51:10.899649,sleep,9.722853,1.625663,-1.187524,-0.054092,0.022916,-0.014123,54813
2025-02-26 01:51:10.899649,sleep,9.720459,1.611298,-1.192312,-0.053825,0.022116,-0.014123,54874
2025-02-26 01:51:10.899649,sleep,9.701305,1.616086,-1.199495,-0.055158,0.023982,-0.014123,54854
2025-02-26 01:51:10.899649,sleep,9.703699,1.613692,-1.201889,-0.055158,0.02558,-0.014389,54925
2025-02-26 01:51:10.899649,sleep,9.689334,1.61848,-1.18513,-0.054891,0.024781,-0.013856,54943
2025-02-26 01:51:10.899649,sleep,9.679757,1.613692,-1.21386,-0.055691,0.024781,-0.013323,54981
2025-02-26 01:51:10.899649,sleep,9.694122,1.616086,-1.204283,-0.055957,0.024248,-0.01359,55021
2025-02-26 01:51:10.899649,sleep,9.703699,1.606509,-1.206678,-0.055424,0.024248,-0.013856,55093
2025-02-26 01:51:10.899649,sleep,9.694122,1.616086,-1.209072,-0.054625,0.023449,-0.01359,55094
2025-02-26 01:51:10.899649,sleep,9.701305,1.616086,-1.197101,-0.054625,0.023182,-0.013856,55133
2025-02-26 01:51:10.899649,sleep,9.684546,1.613692,-1.173159,-0.053825,0.019452,-0.013856,55096
2025-02-26 01:51:10.899649,sleep,9.696517,1.613692,-1.223437,-0.053559,0.019185,-0.014389,55089
2025-02-26 01:51:10.899649,sleep,9.694122,1.606509,-1.228225,-0.054358,0.021317,-0.013856,55051
2025-02-26 01:51:10.899649,sleep,9.703699,1.601721,-1.206678,-0.05649,0.031443,-0.013057,55072
2025-02-26 01:51:10.899649,sleep,9.706094,1.61848,-1.165976,-0.058089,0.032508,-0.01359,55098
2025-02-26 01:51:10.899649,sleep,9.718064,1.616086,-1.182736,-0.057822,0.025847,-0.015721,55024
2025-02-26 01:51:10.899649,sleep,9.691729,1.632846,-1.182736,-0.05649,0.018386,-0.017853,54806
2025-02-26 01:51:10.899649,sleep,9.703699,1.620875,-1.197101,-0.054625,0.016787,-0.018119,54557
2025-02-26 01:51:10.899649,sleep,9.689334,1.620875,-1.218649,-0.056224,0.017587,-0.018386,54336
2025-02-26 01:51:10.899649,sleep,9.679757,1.628057,-1.199495,-0.056757,0.019185,-0.017587,54121
2025-02-26 01:51:10.899649,sleep,9.674969,1.613692,-1.199495,-0.056224,0.021583,-0.016254,53965
2025-02-26 01:51:10.899649,sleep,9.694122,1.620875,-1.175553,-0.055957,0.022916,-0.014922,53934
2025-02-26 01:51:10.899649,sleep,9.696517,1.61848,-1.206678,-0.055158,0.022649,-0.014655,53961
2025-02-26 01:51:10.899649,sleep,9.698911,1.613692,-1.201889,-0.055158,0.023182,-0.012524,54079
2025-02-26 01:51:10.899649,sleep,9.696517,1.620875,-1.194707,-0.055158,0.026913,-0.013856,54116
2025-02-26 01:51:10.899649,sleep,9.715671,1.642422,-1.165976,-0.055691,0.024515,-0.01359,54189
2025-02-26 01:51:10.899649,sleep,9.696517,1.630451,-1.233014,-0.055691,0.025314,-0.013057,54256
2025-02-26 01:51:10.899649,sleep,9.703699,1.604115,-1.201889,-0.055424,0.026646,-0.013856,54243
2025-02-26 01:51:10.899649,sleep,9.684546,1.608904,-1.209072,-0.053825,0.020251,-0.014922,54201
2025-02-26 01:51:10.899649,sleep,9.677363,1.640028,-1.206678,-0.054358,0.021317,-0.01359,54192
2025-02-26 01:51:10.899649,sleep,9.696517,1.620875,-1.221043,-0.054358,0.026113,-0.013323,54300
2025-02-26 01:51:10.899649,sleep,9.706094,1.628057,-1.223437,-0.053825,0.025047,-0.015455,54304
2025-02-26 01:51:10.899649,sleep,9.696517,1.628057,-1.240196,-0.055691,0.025047,-0.013057,54294
2025-02-26 01:51:10.899649,sleep,9.684546,1.630451,-1.206678,-0.05649,0.028245,-0.01359,54356
2025-02-26 01:51:10.899649,sleep,9.694122,1.616086,-1.204283,-0.05649,0.029044,-0.014123,54329
2025-02-26 01:51:10.899649,sleep,9.698911,1.625663,-1.170765,-0.054092,0.023715,-0.014655,54307
2025-02-26 01:51:10.899649,sleep,9.677363,1.613692,-1.170765,-0.055424,0.022116,-0.014389,54271
2025-02-26 01:51:10.899649,sleep,9.679757,1.625663,-1.201889,-0.054891,0.022649,-0.014655,54236
2025-02-26 01:51:10.899649,sleep,9.682152,1.613692,-1.201889,-0.054092,0.02185,-0.014123,54141
2025-02-26 01:51:10.899649,sleep,9.703699,1.623269,-1.211466,-0.054625,0.020518,-0.014123,54130
2025-02-26 01:51:10.899649,sleep,9.698911,1.620875,-1.187524,-0.054358,0.023449,-0.014655,54058
2025-02-26 01:51:10.899649,sleep,9.679757,1.613692,-1.187524,-0.054891,0.022116,-0.015455,54018
2025-02-26 01:51:10.899649,sleep,9.710882,1.61848,-1.165976,-0.053825,0.023182,-0.016787,54021
2025-02-26 01:51:10.899649,sleep,9.694122,1.61848,-1.192312,-0.054358,0.023982,-0.014389,54014
2025-02-26 01:51:10.899649,sleep,9.701305,1.642422,-1.21386,-0.055424,0.024781,-0.013856,54033
2025-02-26 01:51:10.899649,sleep,9.706094,1.63524,-1.197101,-0.055158,0.024515,-0.01359,54018
2025-02-26 01:51:10.899649,sleep,9.694122,1.61848,-1.197101,-0.055158,0.025047,-0.013856,54170
2025-02-26 01:51:10.899649,sleep,9.694122,1.608904,-1.206678,-0.054358,0.024248,-0.014389,54165
2025-02-26 01:51:10.899649,sleep,9.696517,1.613692,-1.177947,-0.054092,0.022916,-0.014389,54033
2025-02-26 01:51:10.899649,sleep,9.694122,1.613692,-1.216254,-0.055158,0.023715,-0.01359,54245
2025-02-26 01:51:10.899649,sleep,9.710882,1.601721,-1.211466,-0.054358,0.02558,-0.01359,54275
2025-02-26 01:51:10.899649,sleep,9.696517,1.604115,-1.192312,-0.054625,0.024248,-0.01279,54379
2025-02-26 01:51:10.899649,sleep,9.698911,1.601721,-1.199495,-0.055691,0.025314,-0.013856,54374
2025-02-26 01:51:10.899649,sleep,9.689334,1.599327,-1.177947,-0.054358,0.023449,-0.013323,54469
2025-02-26 01:51:10.899649,sleep,9.703699,1.616086,-1.18513,-0.054891,0.022916,-0.01359,54462
2025-02-26 01:51:10.899649,sleep,9.689334,1.620875,-1.170765,-0.054625,0.022116,-0.014123,54426
2025-02-26 01:51:10.899649,sleep,9.708488,1.620875,-1.225831,-0.054358,0.023449,-0.014655,54397
2025-02-26 01:51:10.899649,sleep,9.713276,1.620875,-1.18513,-0.054358,0.023715,-0.014123,54418
2025-02-26 01:51:10.899649,sleep,9.715671,1.616086,-1.206678,-0.054092,0.023982,-0.013856,54457
2025-02-26 01:51:10.899649,sleep,9.708488,1.599327,-1.199495,-0.053559,0.022383,-0.014389,54502
2025-02-26 01:51:10.899649,sleep,9.718064,1.616086,-1.18513,-0.053292,0.022649,-0.014389,54538
2025-02-26 01:51:10.899649,sleep,9.713276,1.604115,-1.197101,-0.053559,0.022649,-0.014389,54486
2025-02-26 01:51:10.899649,sleep,9.691729,1.613692,-1.194707,-0.054625,0.023982,-0.014655,54495
2025-02-26 01:51:10.899649,sleep,9.701305,1.604115,-1.209072,-0.054358,0.025047,-0.014389,54496
2025-02-26 01:51:10.899649,sleep,9.706094,1.616086,-1.192312,-0.054891,0.024515,-0.013856,54567
2025-02-26 01:51:10.899649,sleep,9.696517,1.61848,-1.201889,-0.054625,0.023982,-0.014389,54556
2025-02-26 01:51:10.899649,sleep,9.713276,1.623269,-1.18513,-0.054358,0.023449,-0.01359,54557
2025-02-26 01:51:10.899649,sleep,9.696517,1.608904,-1.18513,-0.054092,0.023715,-0.013323,54597
2025-02-26 01:51:10.899649,sleep,9.720459,1.611298,-1.192312,-0.053825,0.021317,-0.014389,54699
2025-02-26 01:51:10.899649,sleep,9.696517,1.642422,-1.16837,-0.053026,0.020784,-0.015721,54765
2025-02-26 01:51:10.899649,sleep,9.725247,1.630451,-1.197101,-0.05196,0.018386,-0.015188,54788
2025-02-26 01:51:10.899649,sleep,9.691729,1.606509,-1.204283,-0.053026,0.018919,-0.014655,54796
2025-02-26 01:51:10.899649,sleep,9.689334,1.620875,-1.225831,-0.055957,0.028778,-0.013323,54783
2025-02-26 01:51:10.899649,sleep,9.694122,1.61848,-1.204283,-0.057289,0.031443,-0.01359,54791
2025-02-26 01:51:10.899649,sleep,9.720459,1.616086,-1.161188,-0.056224,0.023982,-0.015721,54751
2025-02-26 01:51:10.899649,sleep,9.698911,1.63524,-1.165976,-0.055158,0.01279,-0.018919,54550
2025-02-26 01:51:10.899649,sleep,9.68694,1.613692,-1.180341,-0.055424,0.014922,-0.018919,54402
2025-02-26 01:51:10.899649,sleep,9.701305,1.625663,-1.189918,-0.055158,0.019452,-0.018919,54176
2025-02-26 01:51:10.899649,sleep,9.691729,1.611298,-1.240196,-0.05649,0.019985,-0.016787,53925
2025-02-26 01:51:10.899649,sleep,9.674969,1.623269,-1.201889,-0.054358,0.020518,-0.015455,53819
2025-02-26 01:51:10.899649,sleep,9.703699,1.606509,-1.249773,-0.054092,0.023715,-0.015721,53812
2025-02-26 01:51:10.899649,sleep,9.710882,1.620875,-1.218649,-0.054092,0.021317,-0.014922,53830
2025-02-26 01:51:10.899649,sleep,9.684546,1.628057,-1.189918,-0.053825,0.020251,-0.014389,53921
2025-02-26 01:51:10.899649,sleep,9.679757,1.628057,-1.21386,-0.053825,0.023449,-0.014389,53935
2025-02-26 01:51:10.899649,sleep,9.710882,1.632846,-1.199495,-0.054358,0.023982,-0.014123,53966
2025-02-26 01:51:10.899649,sleep,9.698911,1.63524,-1.199495,-0.055691,0.023182,-0.014389,54044
2025-02-26 01:51:10.899649,sleep,9.684546,1.632846,-1.197101,-0.054891,0.023449,-0.015188,54006
2025-02-26 01:51:10.899649,sleep,9.68694,1.61848,-1.211466,-0.054358,0.019718,-0.015988,53936
2025-02-26 01:51:10.899649,sleep,9.698911,1.623269,-1.199495,-0.055424,0.02185,-0.014389,53914
2025-02-26 01:51:10.899649,sleep,9.708488,1.628057,-1.21386,-0.053825,0.023715,-0.01359,53961
2025-02-26 01:51:10.899649,sleep,9.710882,1.613692,-1.221043,-0.053559,0.023449,-0.014922,53982
2025-02-26 01:51:10.899649,sleep,9.682152,1.608904,-1.194707,-0.054625,0.021583,-0.015721,54102
2025-02-26 01:51:10.899649,sleep,9.689334,1.608904,-1.223437,-0.055691,0.026913,-0.014123,54167
2025-02-26 01:51:10.899649,sleep,9.698911,1.623269,-1.197101,-0.055158,0.029044,-0.01359,53961
2025-02-26 01:51:10.899649,sleep,9.684546,1.616086,-1.16837,-0.055424,0.024515,-0.014655,54172
2025-02-26 01:51:10.899649,sleep,9.672575,1.613692,-1.201889,-0.053825,0.020251,-0.014389,54150
2025-02-26 01:51:10.899649,sleep,9.691729,1.623269,-1.209072,-0.054891,0.023982,-0.014655,54157
2025-02-26 01:51:10.899649,sleep,9.698911,1.637634,-1.197101,-0.054891,0.021583,-0.014655,54192
2025-02-26 01:51:10.899649,sleep,9.698911,1.616086,-1.187524,-0.054891,0.02185,-0.013856,54194
2025-02-26 01:51:10.899649,sleep,9.68694,1.606509,-1.182736,-0.054358,0.022116,-0.014922,54164
2025-02-26 01:51:10.899649,sleep,9.710882,1.604115,-1.21386,-0.054092,0.022916,-0.014922,54173
2025-02-26 01:51:10.899649,sleep,9.715671,1.616086,-1.194707,-0.054092,0.023715,-0.014389,54109
2025-02-26 01:51:10.899649,sleep,9.694122,1.623269,-1.194707,-0.055158,0.023715,-0.014655,54129
2025-02-26 01:51:10.899649,sleep,9.689334,1.601721,-1.206678,-0.054358,0.025047,-0.014655,54159
2025-02-26 01:51:10.899649,sleep,9.696517,1.620875,-1.204283,-0.055957,0.026113,-0.014123,54215
2025-02-26 01:51:10.899649,sleep,9.68694,1.625663,-1.177947,-0.054891,0.024781,-0.014389,54240
2025-02-26 01:51:10.899649,sleep,9.698911,1.608904,-1.201889,-0.053825,0.022649,-0.014123,54252
2025-02-26 01:51:10.899649,sleep,9.708488,1.628057,-1.201889,-0.053825,0.022916,-0.014123,54182
2025-02-26 01:51:10.899649,sleep,9.696517,1.623269,-1.206678,-0.053825,0.024781,-0.013323,54202
2025-02-26 01:51:10.899649,sleep,9.68694,1.620875,-1.18513,-0.053825,0.023715,-0.014389,54204
2025-02-26 01:51:10.899649,sleep,9.689334,1.613692,-1.223437,-0.054625,0.023982,-0.013057,54198
2025-02-26 01:51:10.899649,sleep,9.715671,1.613692,-1.199495,-0.054092,0.024781,-0.014123,54218
2025-02-26 01:51:10.899649,sleep,9.713276,1.604115,-1.18513,-0.054891,0.023982,-0.014123,54270
2025-02-26 01:51:10.899649,sleep,9.698911,1.616086,-1.199495,-0.054092,0.024248,-0.014922,54278
2025-02-26 01:51:10.899649,sleep,9.703699,1.625663,-1.242591,-0.054891,0.023449,-0.01359,54351
2025-02-26 01:51:10.899649,sleep,9.698911,1.61848,-1.194707,-0.054358,0.023182,-0.013057,54370
2025-02-26 01:51:10.899649,sleep,9.694122,1.630451,-1.221043,-0.054891,0.022383,-0.014389,54398
2025-02-26 01:51:10.899649,sleep,9.679757,1.620875,-1.182736,-0.054092,0.024515,-0.014389,54415
2025-02-26 01:51:10.899649,sleep,9.672575,1.616086,-1.18513,-0.054891,0.023982,-0.014123,54454
2025-02-26 01:51:10.899649,sleep,9.708488,1.628057,-1.18513,-0.055158,0.023982,-0.01359,54493
2025-02-26 01:51:10.899649,sleep,9.689334,1.599327,-1.206678,-0.054625,0.023182,-0.014655,54414
2025-02-26 01:51:10.899649,sleep,9.689334,1.620875,-1.201889,-0.054358,0.022916,-0.014389,54472
2025-02-26 01:51:10.899649,sleep,9.677363,1.623269,-1.180341,-0.054092,0.022916,-0.013856,54506
2025-02-26 01:51:10.899649,sleep,9.710882,1.625663,-1.23062,-0.054092,0.023449,-0.014922,54467
2025-02-26 01:51:10.899649,sleep,9.73243,1.592144,-1.209072,-0.053559,0.023182,-0.014389,54478
2025-02-26 01:51:10.899649,sleep,9.718064,1.616086,-1.225831,-0.055691,0.024781,-0.014389,54504
2025-02-26 01:51:10.899649,sleep,9.696517,1.623269,-1.204283,-0.054625,0.024515,-0.01359,54548
2025-02-26 01:51:10.899649,sleep,9.715671,1.625663,-1.189918,-0.055158,0.023982,-0.014123,54576
2025-02-26 01:51:10.899649,sleep,9.708488,1.594538,-1.206678,-0.054625,0.024781,-0.014123,54534
2025-02-26 01:51:10.899649,sleep,9.684546,1.632846,-1.197101,-0.054625,0.024515,-0.014123,54523
2025-02-26 01:51:10.899649,sleep,9.710882,1.623269,-1.216254,-0.054891,0.023182,-0.013856,54541
2025-02-26 01:51:10.899649,sleep,9.689334,1.606509,-1.204283,-0.054625,0.023449,-0.014389,54593
2025-02-26 01:51:10.899649,sleep,9.682152,1.613692,-1.161188,-0.053559,0.022916,-0.014922,54634
2025-02-26 01:51:10.899649,sleep,9.718064,1.608904,-1.182736,-0.052227,0.01732,-0.016521,54608
2025-02-26 01:51:10.899649,sleep,9.691729,1.63524,-1.225831,-0.054092,0.017054,-0.014123,54630
2025-02-26 01:51:10.899649,sleep,9.706094,1.61848,-1.228225,-0.05649,0.029577,-0.014389,54645
2025-02-26 01:51:10.899649,sleep,9.715671,1.625663,-1.192312,-0.057556,0.031443,-0.014389,54627
2025-02-26 01:51:10.899649,sleep,9.720459,1.613692,-1.197101,-0.057023,0.024248,-0.015455,54508
2025-02-26 01:51:10.899649,sleep,9.696517,1.616086,-1.194707,-0.055158,0.015721,-0.018386,54318
2025-02-26 01:51:10.899649,sleep,9.694122,1.611298,-1.199495,-0.055957,0.016254,-0.018919,54123
2025-02-26 01:51:10.899649,sleep,9.682152,1.608904,-1.197101,-0.055424,0.017587,-0.018386,53897
2025-02-26 01:51:10.899649,sleep,9.674969,1.608904,-1.216254,-0.055424,0.019185,-0.016787,53726
2025-02-26 01:51:10.899649,sleep,9.674969,1.613692,-1.187524,-0.055957,0.022116,-0.014655,53609
2025-02-26 01:51:10.899649,sleep,9.710882,1.630451,-1.21386,-0.054358,0.023982,-0.014655,53595
2025-02-26 01:51:10.899649,sleep,9.706094,1.63524,-1.197101,-0.054625,0.020784,-0.015721,53630
2025-02-26 01:51:10.899649,sleep,9.694122,1.625663,-1.216254,-0.054092,0.019718,-0.014655,53707
2025-02-26 01:51:10.899649,sleep,9.698911,1.613692,-1.192312,-0.055424,0.02558,-0.014655,53753
2025-02-26 01:51:10.899649,sleep,9.713276,1.611298,-1.180341,-0.053825,0.025047,-0.014389,53851
2025-02-26 01:51:10.899649,sleep,9.696517,1.611298,-1.221043,-0.054891,0.024781,-0.014123,53897
2025-02-26 01:51:10.899649,sleep,9.706094,1.616086,-1.197101,-0.054891,0.024248,-0.014123,53922
2025-02-26 01:51:10.899649,sleep,9.718064,1.616086,-1.187524,-0.054092,0.019985,-0.014922,53915
2025-02-26 01:51:10.899649,sleep,9.68694,1.61848,-1.201889,-0.054891,0.021051,-0.013323,53824
2025-02-26 01:51:10.899649,sleep,9.679757,1.604115,-1.209072,-0.054625,0.023715,-0.013856,53925
2025-02-26 01:51:10.899649,sleep,9.698911,1.616086,-1.189918,-0.054092,0.025047,-0.014123,53963
2025-02-26 01:51:10.899649,sleep,9.684546,1.611298,-1.206678,-0.054358,0.024248,-0.013323,53968
2025-02-26 01:51:10.899649,sleep,9.698911,1.630451,-1.218649,-0.055424,0.026113,-0.013057,54001
2025-02-26 01:51:10.899649,sleep,9.694122,1.625663,-1.18513,-0.055957,0.029577,-0.013323,54047
2025-02-26 01:51:10.899649,sleep,9.68694,1.620875,-1.192312,-0.054358,0.024515,-0.01359,54021
2025-02-26 01:51:10.899649,sleep,9.689334,1.601721,-1.216254,-0.055158,0.022383,-0.013856,54043
2025-02-26 01:51:10.899649,sleep,9.694122,1.625663,-1.177947,-0.054625,0.022649,-0.013856,53976
2025-02-26 01:51:10.899649,sleep,9.703699,1.625663,-1.18513,-0.053825,0.023182,-0.014655,53944
2025-02-26 01:51:10.899649,sleep,9.698911,1.604115,-1.18513,-0.054891,0.021051,-0.014922,53898
2025-02-26 01:51:10.899649,sleep,9.67018,1.61848,-1.23062,-0.055424,0.022649,-0.014123,53888
2025-02-26 01:51:10.899649,sleep,9.682152,1.628057,-1.189918,-0.053825,0.023182,-0.014922,53871
2025-02-26 01:51:10.899649,sleep,9.684546,1.606509,-1.194707,-0.055424,0.021583,-0.014655,53886
2025-02-26 01:51:10.899649,sleep,9.696517,1.613692,-1.240196,-0.054358,0.023715,-0.014123,53904
2025-02-26 01:51:10.899649,sleep,9.701305,1.63524,-1.209072,-0.054891,0.027179,-0.013323,54004
2025-02-26 01:51:10.899649,sleep,9.689334,1.632846,-1.197101,-0.055424,0.025314,-0.013856,53972
2025-02-26 01:51:10.899649,sleep,9.691729,1.63524,-1.180341,-0.054358,0.024248,-0.013856,54078
2025-02-26 01:51:10.899649,sleep,9.710882,1.620875,-1.201889,-0.054092,0.024781,-0.014123,54109
2025-02-26 01:51:10.899649,sleep,9.701305,1.620875,-1.225831,-0.054092,0.023449,-0.01359,54102
2025-02-26 01:51:10.899649,sleep,9.682152,1.632846,-1.206678,-0.053559,0.023715,-0.014123,54093
2025-02-26 01:51:10.899649,sleep,9.698911,1.620875,-1.211466,-0.055158,0.024781,-0.013856,54169
2025-02-26 01:51:10.899649,sleep,9.68694,1.628057,-1.199495,-0.054625,0.024248,-0.012524,54223
2025-02-26 01:51:10.899649,sleep,9.698911,1.613692,-1.21386,-0.054625,0.023982,-0.014389,54266
2025-02-26 01:51:10.899649,sleep,9.694122,1.611298,-1.197101,-0.053825,0.023715,-0.014123,54319
2025-02-26 01:51:10.899649,sleep,9.713276,1.616086,-1.194707,-0.054358,0.023449,-0.01359,54293
2025-02-26 01:51:10.899649,sleep,9.718064,1.616086,-1.204283,-0.054358,0.022649,-0.015188,54312
2025-02-26 01:51:10.899649,sleep,9.68694,1.640028,-1.211466,-0.053026,0.021317,-0.014922,54224
2025-02-26 01:51:10.899649,sleep,9.698911,1.61848,-1.209072,-0.053559,0.023982,-0.013323,54229
2025-02-26 01:51:10.899649,sleep,9.698911,1.606509,-1.21386,-0.055424,0.025047,-0.014922,54260
2025-02-26 01:51:10.899649,sleep,9.68694,1.616086,-1.197101,-0.054625,0.024781,-0.013856,54312
2025-02-26 01:51:10.899649,sleep,9.694122,1.604115,-1.189918,-0.054358,0.023449,-0.01359,54326
2025-02-26 01:51:10.899649,sleep,9.703699,1.608904,-1.189918,-0.054625,0.023982,-0.014123,54289
2025-02-26 01:51:10.899649,sleep,9.696517,1.606509,-1.201889,-0.055158,0.023182,-0.014655,54289
2025-02-26 01:51:10.899649,sleep,9.696517,1.625663,-1.211466,-0.054358,0.024515,-0.01359,54300
2025-02-26 01:51:10.899649,sleep,9.703699,1.613692,-1.23062,-0.055424,0.024248,-0.01359,54309
2025-02-26 01:51:10.899649,sleep,9.713276,1.644817,-1.199495,-0.054891,0.024248,-0.014655,54351
2025-02-26 01:51:10.899649,sleep,9.694122,1.61848,-1.18513,-0.054358,0.022649,-0.014922,54342
2025-02-26 01:51:10.899649,sleep,9.679757,1.604115,-1.161188,-0.055158,0.023982,-0.015188,54356
2025-02-26 01:51:10.899649,sleep,9.68694,1.640028,-1.201889,-0.055158,0.025314,-0.014123,54309
2025-02-26 01:51:10.899649,sleep,9.689334,1.628057,-1.211466,-0.054891,0.025314,-0.013323,54461
2025-02-26 01:51:10.899649,sleep,9.701305,1.625663,-1.194707,-0.055158,0.026113,-0.014389,54426
2025-02-26 01:51:10.899649,sleep,9.698911,1.616086,-1.192312,-0.055691,0.026113,-0.013323,54533
2025-02-26 01:51:10.899649,sleep,9.698911,1.625663,-1.192312,-0.054891,0.02558,-0.014123,54575
2025-02-26 01:51:10.899649,sleep,9.713276,1.625663,-1.182736,-0.054625,0.022916,-0.014123,54624
2025-02-26 01:51:10.899649,sleep,9.718064,1.637634,-1.177947,-0.055957,0.022383,-0.01359,54705
2025-02-26 01:51:10.899649,sleep,9.706094,1.592144,-1.180341,-0.053825,0.023182,-0.014123,54787
2025-02-26 01:51:10.899649,sleep,9.696517,1.601721,-1.180341,-0.05196,0.017054,-0.015455,54844
2025-02-26 01:51:10.899649,sleep,9.698911,1.616086,-1.211466,-0.053825,0.018119,-0.014389,54883
2025-02-26 01:51:10.899649,sleep,9.694122,1.616086,-1.247379,-0.055957,0.028778,-0.012257,54855
2025-02-26 01:51:10.899649,sleep,9.710882,1.630451,-1.187524,-0.057556,0.034374,-0.013057,54790
2025-02-26 01:51:10.899649,sleep,9.706094,1.616086,-1.158794,-0.057822,0.028778,-0.014922,54716
2025-02-26 01:51:10.899649,sleep,9.698911,1.620875,-1.180341,-0.055957,0.018652,-0.01732,54595
2025-02-26 01:51:10.899649,sleep,9.706094,1.630451,-1.192312,-0.056224,0.016254,-0.017054,54414
2025-02-26 01:51:10.899649,sleep,9.727641,1.625663,-1.177947,-0.05649,0.019452,-0.017853,54245
2025-02-26 01:51:10.899649,sleep,9.691729,1.599327,-1.187524,-0.055691,0.018652,-0.01732,54050
2025-02-26 01:51:10.899649,sleep,9.694122,1.61848,-1.18513,-0.055691,0.021583,-0.015455,53948
2025-02-26 01:51:10.899649,sleep,9.684546,1.625663,-1.180341,-0.054891,0.02558,-0.014389,53928
2025-02-26 01:51:10.899649,sleep,9.696517,1.632846,-1.21386,-0.053825,0.024781,-0.014655,53906
2025-02-26 01:51:10.899649,sleep,9.703699,1.613692,-1.21386,-0.054891,0.021317,-0.01359,53922
2025-02-26 01:51:10.899649,sleep,9.68694,1.611298,-1.206678,-0.054358,0.025847,-0.013856,53941
2025-02-26 01:51:10.899649,sleep,9.691729,1.620875,-1.21386,-0.055158,0.028511,-0.013856,54019
2025-02-26 01:51:10.899649,sleep,9.696517,1.620875,-1.189918,-0.055691,0.025847,-0.01359,54095
2025-02-26 01:51:10.899649,sleep,9.694122,1.625663,-1.223437,-0.054891,0.025314,-0.014389,54173
2025-02-26 01:51:10.899649,sleep,9.696517,1.608904,-1.173159,-0.053292,0.022916,-0.015188,54137
2025-02-26 01:51:10.899649,sleep,9.684546,1.628057,-1.206678,-0.054625,0.019185,-0.015188,54150
2025-02-26 01:51:10.899649,sleep,9.689334,1.611298,-1.197101,-0.054625,0.024248,-0.013057,54221
2025-02-26 01:51:10.899649,sleep,9.684546,1.61848,-1.182736,-0.055158,0.026113,-0.013323,54253
2025-02-26 01:51:10.899649,sleep,9.679757,1.608904,-1.209072,-0.055158,0.025314,-0.014389,54279
2025-02-26 01:51:10.899649,sleep,9.694122,1.623269,-1.223437,-0.055691,0.027712,-0.01359,54418
2025-02-26 01:51:10.899649,sleep,9.708488,1.623269,-1.211466,-0.056224,0.03011,-0.013323,54446
2025-02-26 01:51:10.899649,sleep,9.689334,1.623269,-1.154005,-0.056224,0.025047,-0.013323,54454
2025-02-26 01:51:10.899649,sleep,9.694122,1.613692,-1.161188,-0.055158,0.021583,-0.014922,54427
2025-02-26 01:51:10.899649,sleep,9.696517,1.628057,-1.221043,-0.055424,0.022649,-0.014922,54329
2025-02-26 01:51:10.899649,sleep,9.682152,1.632846,-1.201889,-0.054891,0.022916,-0.014922,54267
2025-02-26 01:51:10.899649,sleep,9.677363,1.616086,-1.194707,-0.055158,0.022383,-0.014389,54222
2025-02-26 01:51:10.899649,sleep,9.694122,1.61848,-1.209072,-0.055691,0.02185,-0.014123,54233
2025-02-26 01:51:10.899649,sleep,9.713276,1.61848,-1.194707,-0.054625,0.023982,-0.014123,54267
2025-02-26 01:51:10.899649,sleep,9.682152,1.630451,-1.204283,-0.054891,0.023449,-0.014123,54298
2025-02-26 01:51:10.899649,sleep,9.677363,1.616086,-1.182736,-0.054625,0.025047,-0.013323,54271
2025-02-26 01:51:10.899649,sleep,9.679757,1.599327,-1.187524,-0.054358,0.024248,-0.014123,54272
