Timestamp,Label,AccelX,AccelY,AccelZ,GyroX,GyroY,GyroZ,IR
2025-02-26 01:21:31.724024,sleep,10.05325,0.351948,1.805228,-0.055158,0.024781,-0.014655,84990
2025-02-26 01:21:31.724024,sleep,10.05325,0.344765,1.853112,-0.054625,0.022383,-0.015455,84896
2025-02-26 01:21:31.724024,sleep,10.03649,0.349553,1.843535,-0.055691,0.021051,-0.014655,84824
2025-02-26 01:21:31.724024,sleep,10.05804,0.344765,1.826776,-0.055691,0.023182,-0.014655,84765
2025-02-26 01:21:31.724024,sleep,10.03649,0.363919,1.812411,-0.055691,0.023182,-0.015188,84675
2025-02-26 01:21:31.724024,sleep,10.04368,0.35913,1.821988,-0.054358,0.022916,-0.014123,84639
2025-02-26 01:21:31.724024,sleep,10.04128,0.361524,1.795651,-0.054891,0.024515,-0.014389,84689
2025-02-26 01:21:31.724024,sleep,10.04368,0.354342,1.831564,-0.055158,0.025047,-0.014922,84687
2025-02-26 01:21:31.724024,sleep,10.05325,0.351948,1.810017,-0.054891,0.023982,-0.015188,84726
2025-02-26 01:21:31.724024,sleep,10.04128,0.344765,1.793257,-0.055158,0.022916,-0.014389,84730
2025-02-26 01:21:31.724024,sleep,10.05804,0.361524,1.819593,-0.055158,0.023982,-0.014389,84789
2025-02-26 01:21:31.724024,sleep,10.07001,0.356736,1.821988,-0.055424,0.023449,-0.014389,84792
2025-02-26 01:21:31.724024,sleep,10.06283,0.35913,1.810017,-0.055957,0.019985,-0.015721,84846
2025-02-26 01:21:31.724024,sleep,10.03649,0.332794,1.814805,-0.054891,0.024515,-0.014389,84814
2025-02-26 01:21:31.724024,sleep,10.07241,0.356736,1.821988,-0.055424,0.024248,-0.014389,84884
2025-02-26 01:21:31.724024,sleep,10.04607,0.351948,1.810017,-0.055158,0.020251,-0.014922,84866
2025-02-26 01:21:31.724024,sleep,10.03889,0.344765,1.850718,-0.054625,0.022916,-0.014922,84764
2025-02-26 01:21:31.724024,sleep,10.04607,0.351948,1.826776,-0.054891,0.023182,-0.014123,84729
2025-02-26 01:21:31.724024,sleep,10.0748,0.368707,1.82917,-0.055158,0.021317,-0.014389,84724
2025-02-26 01:21:31.724024,sleep,10.04607,0.342371,1.819593,-0.056224,0.023982,-0.014123,84763
2025-02-26 01:21:31.724024,sleep,10.02452,0.361524,1.795651,-0.055424,0.023982,-0.014123,84782
2025-02-26 01:21:31.724024,sleep,10.02931,0.347159,1.80044,-0.055424,0.023715,-0.014922,84791
2025-02-26 01:21:31.724024,sleep,10.01255,0.351948,1.821988,-0.054891,0.022916,-0.014655,84714
2025-02-26 01:21:31.724024,sleep,10.03649,0.35913,1.82917,-0.055957,0.023715,-0.01359,84675
2025-02-26 01:21:31.724024,sleep,10.05565,0.366313,1.826776,-0.054891,0.022649,-0.014123,84696
2025-02-26 01:21:31.724024,sleep,10.03889,0.354342,1.819593,-0.055158,0.022383,-0.014389,84690
2025-02-26 01:21:31.724024,sleep,10.03649,0.356736,1.817199,-0.054891,0.023449,-0.014655,84639
2025-02-26 01:21:31.724024,sleep,10.06044,0.366313,1.817199,-0.055691,0.023449,-0.014655,84625
2025-02-26 01:21:31.724024,sleep,10.0341,0.356736,1.798046,-0.055424,0.022383,-0.015188,84655
2025-02-26 01:21:31.724024,sleep,10.06283,0.349553,1.82917,-0.054891,0.022116,-0.014655,84716
2025-02-26 01:21:31.724024,sleep,10.05565,0.351948,1.814805,-0.054891,0.022116,-0.014922,84639
2025-02-26 01:21:31.724024,sleep,10.06762,0.342371,1.807622,-0.055691,0.023715,-0.014389,84745
2025-02-26 01:21:31.724024,sleep,10.05086,0.347159,1.82917,-0.055158,0.022649,-0.014389,84744
2025-02-26 01:21:31.724024,sleep,10.05325,0.337582,1.814805,-0.055424,0.022916,-0.014655,84740
2025-02-26 01:21:31.724024,sleep,10.0317,0.35913,1.824382,-0.055158,0.023715,-0.013856,84787
2025-02-26 01:21:31.724024,sleep,10.05565,0.351948,1.810017,-0.055158,0.023715,-0.014389,84800
2025-02-26 01:21:31.724024,sleep,10.05565,0.361524,1.807622,-0.055691,0.023715,-0.014655,84850
2025-02-26 01:21:31.724024,sleep,10.05325,0.35913,1.824382,-0.054625,0.022116,-0.014922,84842
2025-02-26 01:21:31.724024,sleep,10.06762,0.347159,1.798046,-0.054625,0.022649,-0.014655,84785
2025-02-26 01:21:31.724024,sleep,10.04846,0.349553,1.819593,-0.054358,0.023449,-0.015188,84734
2025-02-26 01:21:31.724024,sleep,10.06283,0.332794,1.836353,-0.055158,0.022649,-0.014389,84702
2025-02-26 01:21:31.724024,sleep,10.06283,0.35913,1.824382,-0.054625,0.023182,-0.015455,84704
2025-02-26 01:21:31.724024,sleep,10.03889,0.349553,1.82917,-0.055424,0.023449,-0.014389,84721
2025-02-26 01:21:31.724024,sleep,10.07001,0.354342,1.850718,-0.054891,0.023182,-0.014655,84759
2025-02-26 01:21:31.724024,sleep,10.04128,0.35913,1.826776,-0.055691,0.024781,-0.015188,84743
2025-02-26 01:21:31.724024,sleep,10.04607,0.332794,1.836353,-0.054625,0.023449,-0.013856,84722
2025-02-26 01:21:31.724024,sleep,10.04846,0.356736,1.817199,-0.054625,0.023982,-0.014123,84729
2025-02-26 01:21:31.724024,sleep,10.0317,0.35913,1.843535,-0.055424,0.023449,-0.013856,84723
2025-02-26 01:21:31.724024,sleep,10.0317,0.356736,1.814805,-0.054625,0.023982,-0.013323,84722
2025-02-26 01:21:31.724024,sleep,10.05086,0.351948,1.810017,-0.055158,0.02558,-0.013057,84716
2025-02-26 01:21:31.724024,sleep,10.05804,0.344765,1.810017,-0.054358,0.019718,-0.015188,84729
2025-02-26 01:21:31.724024,sleep,10.04368,0.368707,1.824382,-0.055424,0.022116,-0.015721,84689
2025-02-26 01:21:31.724024,sleep,10.03889,0.337582,1.831564,-0.055691,0.024248,-0.015188,84692
2025-02-26 01:21:31.724024,sleep,10.05565,0.344765,1.812411,-0.055424,0.021051,-0.015188,84674
2025-02-26 01:21:31.724024,sleep,10.03889,0.347159,1.826776,-0.055424,0.022116,-0.015455,84596
2025-02-26 01:21:31.724024,sleep,10.04846,0.35913,1.805228,-0.055691,0.023449,-0.014389,84545
2025-02-26 01:21:31.724024,sleep,10.04128,0.323217,1.819593,-0.055158,0.022649,-0.014655,84461
2025-02-26 01:21:31.724024,sleep,10.06522,0.344765,1.817199,-0.056224,0.021583,-0.014922,84480
2025-02-26 01:21:31.724024,sleep,10.03889,0.354342,1.814805,-0.055424,0.023182,-0.015188,84524
2025-02-26 01:21:31.724024,sleep,10.03889,0.347159,1.812411,-0.05649,0.023182,-0.014655,84559
2025-02-26 01:21:31.724024,sleep,10.04607,0.354342,1.807622,-0.054891,0.023182,-0.015988,84559
2025-02-26 01:21:31.724024,sleep,10.05325,0.344765,1.824382,-0.054891,0.023982,-0.014123,84520
2025-02-26 01:21:31.724024,sleep,10.04128,0.35913,1.814805,-0.054891,0.022916,-0.014123,84443
2025-02-26 01:21:31.724024,sleep,10.04607,0.344765,1.812411,-0.054891,0.022649,-0.015721,84402
2025-02-26 01:21:31.724024,sleep,10.05325,0.337582,1.786075,-0.055691,0.021317,-0.015988,84401
2025-02-26 01:21:31.724024,sleep,10.03649,0.35913,1.810017,-0.055424,0.026646,-0.014389,84422
2025-02-26 01:21:31.724024,sleep,10.03649,0.351948,1.850718,-0.055691,0.024781,-0.015188,84465
2025-02-26 01:21:31.724024,sleep,10.03889,0.368707,1.807622,-0.055424,0.020784,-0.014922,84432
2025-02-26 01:21:31.724024,sleep,10.04846,0.363919,1.812411,-0.054891,0.023715,-0.015188,84384
2025-02-26 01:21:31.724024,sleep,10.05565,0.366313,1.82917,-0.054891,0.022649,-0.014922,84362
2025-02-26 01:21:31.724024,sleep,10.04368,0.371101,1.826776,-0.054891,0.022116,-0.014389,84351
2025-02-26 01:21:31.724024,sleep,10.05565,0.35913,1.82917,-0.055691,0.023715,-0.014389,84335
2025-02-26 01:21:31.724024,sleep,10.04607,0.361524,1.838747,-0.054358,0.023982,-0.014389,84263
2025-02-26 01:21:31.724024,sleep,10.0317,0.363919,1.814805,-0.055957,0.022383,-0.014922,84224
2025-02-26 01:21:31.724024,sleep,10.04368,0.383072,1.817199,-0.054358,0.023182,-0.015188,84251
2025-02-26 01:21:31.724024,sleep,10.05325,0.371101,1.814805,-0.054358,0.022649,-0.014389,84263
2025-02-26 01:21:31.724024,sleep,10.06283,0.371101,1.82917,-0.054891,0.023715,-0.014655,84294
2025-02-26 01:21:31.724024,sleep,10.06283,0.361524,1.80044,-0.055691,0.022649,-0.015188,84295
2025-02-26 01:21:31.724024,sleep,10.03649,0.35913,1.826776,-0.055158,0.023982,-0.013856,84341
2025-02-26 01:21:31.724024,sleep,10.0341,0.342371,1.821988,-0.054358,0.022116,-0.015188,84297
2025-02-26 01:21:31.724024,sleep,10.05565,0.354342,1.819593,-0.055424,0.023449,-0.014922,84308
2025-02-26 01:21:31.724024,sleep,10.06283,0.37589,1.795651,-0.055158,0.023715,-0.014655,84350
2025-02-26 01:21:31.724024,sleep,10.04846,0.35913,1.810017,-0.054092,0.022649,-0.014655,84421
2025-02-26 01:21:31.724024,sleep,10.04846,0.351948,1.795651,-0.054891,0.022916,-0.013057,84423
2025-02-26 01:21:31.724024,sleep,10.0317,0.344765,1.793257,-0.053825,0.023982,-0.013856,84379
2025-02-26 01:21:31.724024,sleep,10.04846,0.342371,1.821988,-0.054891,0.023715,-0.015455,84311
2025-02-26 01:21:31.724024,sleep,10.04128,0.361524,1.826776,-0.054891,0.022916,-0.014123,84299
2025-02-26 01:21:31.724024,sleep,10.04128,0.344765,1.838747,-0.054891,0.023715,-0.014389,84313
2025-02-26 01:21:31.724024,sleep,10.06522,0.351948,1.814805,-0.055158,0.023182,-0.013323,84327
2025-02-26 01:21:31.724024,sleep,10.04368,0.349553,1.788469,-0.054625,0.023449,-0.015721,84358
2025-02-26 01:21:31.724024,sleep,10.03889,0.344765,1.814805,-0.055691,0.024248,-0.015455,84327
2025-02-26 01:21:31.724024,sleep,10.04846,0.337582,1.810017,-0.054358,0.022916,-0.014922,84316
2025-02-26 01:21:31.724024,sleep,10.03649,0.349553,1.802834,-0.055158,0.020784,-0.014123,84294
2025-02-26 01:21:31.724024,sleep,10.03889,0.349553,1.795651,-0.055691,0.022916,-0.014922,84287
2025-02-26 01:21:31.724024,sleep,10.04368,0.378284,1.819593,-0.054891,0.02185,-0.014389,84297
2025-02-26 01:21:31.724024,sleep,10.05325,0.366313,1.824382,-0.054891,0.022916,-0.014922,84245
2025-02-26 01:21:31.724024,sleep,10.04607,0.347159,1.824382,-0.055424,0.023449,-0.014655,84260
2025-02-26 01:21:31.724024,sleep,10.02931,0.356736,1.843535,-0.055424,0.022916,-0.014655,84272
2025-02-26 01:21:31.724024,sleep,10.05325,0.349553,1.831564,-0.055424,0.023715,-0.015188,84313
2025-02-26 01:21:31.724024,sleep,10.04368,0.351948,1.817199,-0.054891,0.023449,-0.013856,84350
2025-02-26 01:21:31.724024,sleep,10.03889,0.354342,1.824382,-0.055158,0.022916,-0.015455,84291
2025-02-26 01:21:31.724024,sleep,10.05565,0.356736,1.850718,-0.055158,0.024248,-0.014922,84414
2025-02-26 01:21:31.724024,sleep,10.06044,0.349553,1.786075,-0.054891,0.022383,-0.014389,84383
2025-02-26 01:21:31.724024,sleep,10.04368,0.361524,1.781286,-0.055424,0.023982,-0.013856,84387
2025-02-26 01:21:31.724024,sleep,10.01495,0.351948,1.80044,-0.055957,0.019718,-0.015188,84426
2025-02-26 01:21:31.724024,sleep,10.04368,0.368707,1.831564,-0.055158,0.023449,-0.01359,84465
2025-02-26 01:21:31.724024,sleep,10.02452,0.363919,1.807622,-0.054625,0.024515,-0.013323,84480
2025-02-26 01:21:31.724024,sleep,10.04846,0.347159,1.821988,-0.054092,0.020251,-0.015455,84460
2025-02-26 01:21:31.724024,sleep,10.03889,0.354342,1.817199,-0.054891,0.019718,-0.017054,84310
2025-02-26 01:21:31.724024,sleep,10.03889,0.373495,1.802834,-0.055691,0.024515,-0.014655,84208
2025-02-26 01:21:31.724024,sleep,10.05086,0.37589,1.814805,-0.055691,0.022383,-0.015988,84139
2025-02-26 01:21:31.724024,sleep,10.05325,0.35913,1.819593,-0.055691,0.022916,-0.015455,84091
2025-02-26 01:21:31.724024,sleep,10.03649,0.335188,1.802834,-0.055424,0.023715,-0.014389,84045
2025-02-26 01:21:31.724024,sleep,10.04368,0.361524,1.814805,-0.055957,0.022383,-0.014922,84003
2025-02-26 01:21:31.724024,sleep,10.02931,0.363919,1.82917,-0.054891,0.021317,-0.014655,83927
2025-02-26 01:21:31.724024,sleep,10.05804,0.351948,1.826776,-0.055957,0.022916,-0.014123,83905
2025-02-26 01:21:31.724024,sleep,10.04846,0.349553,1.790863,-0.054092,0.022383,-0.014655,83920
2025-02-26 01:21:31.724024,sleep,10.05325,0.339977,1.805228,-0.054891,0.022649,-0.015455,83898
2025-02-26 01:21:31.724024,sleep,10.03889,0.342371,1.817199,-0.054092,0.023182,-0.01359,83863
2025-02-26 01:21:31.724024,sleep,10.02931,0.363919,1.833959,-0.054092,0.024248,-0.01359,83863
2025-02-26 01:21:31.724024,sleep,10.04368,0.351948,1.843535,-0.053559,0.023982,-0.014389,83865
2025-02-26 01:21:31.724024,sleep,10.0317,0.347159,1.836353,-0.054625,0.021051,-0.015455,83867
2025-02-26 01:21:31.724024,sleep,10.0317,0.361524,1.84593,-0.055691,0.02638,-0.014123,83891
2025-02-26 01:21:31.724024,sleep,10.04607,0.35913,1.812411,-0.054891,0.023182,-0.014123,83990
2025-02-26 01:21:31.724024,sleep,10.04368,0.363919,1.805228,-0.054358,0.021317,-0.015721,83865
2025-02-26 01:21:31.724024,sleep,10.04128,0.349553,1.812411,-0.055424,0.022383,-0.015188,83972
2025-02-26 01:21:31.724024,sleep,10.04128,0.349553,1.810017,-0.055424,0.022383,-0.015721,83986
2025-02-26 01:21:31.724024,sleep,10.05804,0.356736,1.798046,-0.054358,0.02185,-0.014655,83993
2025-02-26 01:21:31.724024,sleep,10.05086,0.35913,1.817199,-0.054891,0.023449,-0.014655,84084
2025-02-26 01:21:31.724024,sleep,10.06522,0.366313,1.805228,-0.055424,0.023449,-0.014922,84124
2025-02-26 01:21:31.724024,sleep,10.03889,0.349553,1.817199,-0.055424,0.025047,-0.014389,84117
2025-02-26 01:21:31.724024,sleep,10.04368,0.366313,1.826776,-0.055424,0.024515,-0.014922,84047
2025-02-26 01:21:31.724024,sleep,10.04846,0.361524,1.80044,-0.055424,0.022916,-0.014922,84002
2025-02-26 01:21:31.724024,sleep,10.05086,0.354342,1.824382,-0.054625,0.022116,-0.014123,83971
2025-02-26 01:21:31.724024,sleep,10.0341,0.354342,1.805228,-0.055957,0.024248,-0.015188,84007
2025-02-26 01:21:31.724024,sleep,10.05086,0.361524,1.82917,-0.055957,0.024248,-0.014389,84017
2025-02-26 01:21:31.724024,sleep,10.04846,0.378284,1.807622,-0.055158,0.023182,-0.014389,84082
2025-02-26 01:21:31.724024,sleep,10.06283,0.356736,1.812411,-0.054891,0.022649,-0.014655,84105
2025-02-26 01:21:31.724024,sleep,10.03889,0.339977,1.810017,-0.055424,0.024781,-0.014389,84036
2025-02-26 01:21:31.724024,sleep,10.03889,0.351948,1.819593,-0.054625,0.025047,-0.014123,84027
2025-02-26 01:21:31.724024,sleep,10.03649,0.361524,1.810017,-0.055158,0.023182,-0.014922,84029
2025-02-26 01:21:31.724024,sleep,10.04128,0.390255,1.831564,-0.054358,0.023715,-0.014123,84047
2025-02-26 01:21:31.724024,sleep,10.04128,0.366313,1.848324,-0.055424,0.025314,-0.01359,84020
2025-02-26 01:21:31.724024,sleep,10.05804,0.347159,1.805228,-0.055424,0.023715,-0.014655,84071
2025-02-26 01:21:31.724024,sleep,10.07241,0.351948,1.82917,-0.055158,0.023182,-0.014123,84092
2025-02-26 01:21:31.724024,sleep,10.03889,0.351948,1.814805,-0.055158,0.022916,-0.014123,84106
2025-02-26 01:21:31.724024,sleep,10.04368,0.361524,1.810017,-0.054891,0.022383,-0.015188,84168
2025-02-26 01:21:31.724024,sleep,10.0317,0.337582,1.802834,-0.054358,0.023715,-0.013856,84202
2025-02-26 01:21:31.724024,sleep,10.04128,0.354342,1.817199,-0.055691,0.023449,-0.015188,84213
2025-02-26 01:21:31.724024,sleep,10.0341,0.342371,1.84593,-0.055158,0.024515,-0.014922,84184
2025-02-26 01:21:31.724024,sleep,10.07001,0.368707,1.802834,-0.055158,0.023982,-0.014655,84201
2025-02-26 01:21:31.724024,sleep,10.04128,0.35913,1.810017,-0.054891,0.023715,-0.014922,84293
2025-02-26 01:21:31.724024,sleep,10.06283,0.363919,1.810017,-0.055691,0.025047,-0.015455,84332
2025-02-26 01:21:31.724024,sleep,10.04607,0.344765,1.84593,-0.055957,0.023715,-0.014922,84353
2025-02-26 01:21:31.724024,sleep,10.04607,0.351948,1.817199,-0.054625,0.023982,-0.014389,84375
2025-02-26 01:21:31.724024,sleep,10.04607,0.366313,1.817199,-0.054625,0.023982,-0.014655,84332
2025-02-26 01:21:31.724024,sleep,10.04607,0.347159,1.836353,-0.055424,0.023715,-0.015188,84281
2025-02-26 01:21:31.724024,sleep,10.06283,0.351948,1.810017,-0.054891,0.024515,-0.014655,84278
2025-02-26 01:21:31.724024,sleep,10.0317,0.354342,1.80044,-0.055957,0.022916,-0.014123,84315
2025-02-26 01:21:31.724024,sleep,10.04607,0.344765,1.838747,-0.055691,0.023449,-0.013856,84354
2025-02-26 01:21:31.724024,sleep,10.04368,0.361524,1.810017,-0.055424,0.023182,-0.014389,84372
2025-02-26 01:21:31.724024,sleep,10.0341,0.361524,1.807622,-0.055691,0.023182,-0.014389,84342
2025-02-26 01:21:31.724024,sleep,10.06762,0.371101,1.821988,-0.055691,0.023449,-0.014655,84328
2025-02-26 01:21:31.724024,sleep,10.03889,0.363919,1.817199,-0.055691,0.023715,-0.014922,84317
2025-02-26 01:21:31.724024,sleep,10.05804,0.35913,1.812411,-0.054092,0.024781,-0.014389,84319
2025-02-26 01:21:31.724024,sleep,10.03889,0.363919,1.812411,-0.054891,0.022649,-0.014922,84306
2025-02-26 01:21:31.724024,sleep,10.06044,0.368707,1.838747,-0.055158,0.023182,-0.014655,84311
2025-02-26 01:21:31.724024,sleep,10.03889,0.347159,1.853112,-0.054891,0.022383,-0.015721,84292
2025-02-26 01:21:31.724024,sleep,10.04607,0.356736,1.810017,-0.056224,0.026646,-0.015188,84367
2025-02-26 01:21:31.724024,sleep,10.06044,0.349553,1.807622,-0.055424,0.024781,-0.014922,84366
2025-02-26 01:21:31.724024,sleep,10.05086,0.342371,1.814805,-0.054358,0.019718,-0.015721,84372
2025-02-26 01:21:31.724024,sleep,10.05086,0.35913,1.798046,-0.054625,0.023715,-0.014922,84379
2025-02-26 01:21:31.724024,sleep,10.04368,0.349553,1.805228,-0.055424,0.025047,-0.015188,84367
2025-02-26 01:21:31.724024,sleep,10.0317,0.347159,1.802834,-0.055691,0.022649,-0.015455,84269
2025-02-26 01:21:31.724024,sleep,10.04607,0.356736,1.810017,-0.055158,0.022649,-0.013856,84224
2025-02-26 01:21:31.724024,sleep,10.04846,0.373495,1.80044,-0.055424,0.023715,-0.014922,84283
2025-02-26 01:21:31.724024,sleep,10.06522,0.368707,1.836353,-0.054891,0.022916,-0.014922,84269
2025-02-26 01:21:31.724024,sleep,10.04607,0.354342,1.826776,-0.054891,0.023715,-0.014922,84259
2025-02-26 01:21:31.724024,sleep,10.05086,0.351948,1.817199,-0.054625,0.023982,-0.014922,84221
2025-02-26 01:21:31.724024,sleep,10.03649,0.354342,1.82917,-0.055957,0.023182,-0.014655,84179
2025-02-26 01:21:31.724024,sleep,10.07001,0.361524,1.807622,-0.055424,0.023982,-0.014389,84174
2025-02-26 01:21:31.724024,sleep,10.05565,0.366313,1.802834,-0.055424,0.025314,-0.014922,84209
2025-02-26 01:21:31.724024,sleep,10.05565,0.356736,1.84593,-0.055158,0.02558,-0.014655,84240
2025-02-26 01:21:31.724024,sleep,10.04607,0.35913,1.819593,-0.053825,0.023715,-0.015188,84237
2025-02-26 01:21:31.724024,sleep,10.04128,0.363919,1.836353,-0.054625,0.023449,-0.015455,84208
2025-02-26 01:21:31.724024,sleep,10.04128,0.361524,1.82917,-0.055158,0.025847,-0.014389,84222
2025-02-26 01:21:31.724024,sleep,10.05086,0.371101,1.807622,-0.055158,0.022116,-0.014655,84228
2025-02-26 01:21:31.724024,sleep,10.04846,0.344765,1.812411,-0.054891,0.022649,-0.014655,84200
2025-02-26 01:21:31.724024,sleep,10.04368,0.347159,1.802834,-0.055158,0.024248,-0.013856,84164
2025-02-26 01:21:31.724024,sleep,10.0341,0.363919,1.812411,-0.055158,0.023715,-0.015188,84137
2025-02-26 01:21:31.724024,sleep,10.06044,0.361524,1.82917,-0.054625,0.022649,-0.014655,84165
2025-02-26 01:21:31.724024,sleep,10.05086,0.368707,1.817199,-0.054891,0.023982,-0.015188,84200
2025-02-26 01:21:31.724024,sleep,10.06762,0.347159,1.807622,-0.055691,0.023982,-0.014389,84254
2025-02-26 01:21:31.724024,sleep,10.01016,0.354342,1.84593,-0.055424,0.023449,-0.014389,84278
2025-02-26 01:21:31.724024,sleep,10.04368,0.351948,1.814805,-0.054891,0.024248,-0.014922,84287
2025-02-26 01:21:31.724024,sleep,10.03889,0.351948,1.812411,-0.056224,0.022916,-0.014922,84301
2025-02-26 01:21:31.724024,sleep,10.04128,0.351948,1.84593,-0.054625,0.022649,-0.015188,84323
2025-02-26 01:21:31.724024,sleep,10.03649,0.361524,1.812411,-0.054625,0.024515,-0.015188,84368
2025-02-26 01:21:31.724024,sleep,10.05804,0.35913,1.786075,-0.054891,0.023182,-0.014655,84403
2025-02-26 01:21:31.724024,sleep,10.06283,0.351948,1.795651,-0.054891,0.021583,-0.014123,84373
2025-02-26 01:21:31.724024,sleep,10.05804,0.354342,1.821988,-0.055424,0.022383,-0.014389,84299
2025-02-26 01:21:31.724024,sleep,10.06283,0.371101,1.819593,-0.054891,0.022916,-0.014389,84333
2025-02-26 01:21:31.724024,sleep,10.04846,0.37589,1.764527,-0.055424,0.024515,-0.014922,84341
2025-02-26 01:21:31.724024,sleep,10.0748,0.337582,1.788469,-0.055691,0.023982,-0.015188,84373
2025-02-26 01:21:31.724024,sleep,10.04128,0.356736,1.843535,-0.055424,0.022649,-0.014389,84361
2025-02-26 01:21:31.724024,sleep,10.06762,0.320823,1.833959,-0.054625,0.023182,-0.014123,84378
2025-02-26 01:21:31.724024,sleep,10.03889,0.332794,1.855506,-0.055158,0.023182,-0.014922,84431
2025-02-26 01:21:31.724024,sleep,10.04128,0.351948,1.78368,-0.055424,0.023182,-0.014922,84455
2025-02-26 01:21:31.724024,sleep,10.06283,0.354342,1.853112,-0.055158,0.02185,-0.014123,84471
2025-02-26 01:21:31.724024,sleep,10.04607,0.351948,1.824382,-0.054625,0.022649,-0.014123,84484
2025-02-26 01:21:31.724024,sleep,10.03889,0.371101,1.821988,-0.055158,0.023449,-0.01359,84395
2025-02-26 01:21:31.724024,sleep,10.05086,0.347159,1.802834,-0.055691,0.023715,-0.015455,84375
2025-02-26 01:21:31.724024,sleep,10.05086,0.351948,1.795651,-0.054891,0.022916,-0.014655,84339
2025-02-26 01:21:31.724024,sleep,10.03889,0.349553,1.821988,-0.053825,0.023182,-0.014655,84363
2025-02-26 01:21:31.724024,sleep,10.04368,0.368707,1.817199,-0.054625,0.023449,-0.015188,84420
2025-02-26 01:21:31.724024,sleep,10.03889,0.356736,1.824382,-0.055691,0.024248,-0.014389,84439
2025-02-26 01:21:31.724024,sleep,10.03889,0.378284,1.793257,-0.054625,0.024781,-0.014389,84389
2025-02-26 01:21:31.724024,sleep,10.0317,0.35913,1.80044,-0.054891,0.023982,-0.01359,84384
2025-02-26 01:21:31.724024,sleep,10.04368,0.354342,1.82917,-0.054092,0.023449,-0.014922,84381
2025-02-26 01:21:31.724024,sleep,10.04128,0.356736,1.833959,-0.053825,0.022916,-0.014922,84380
2025-02-26 01:21:31.724024,sleep,10.03889,0.349553,1.831564,-0.055691,0.023182,-0.014655,84372
2025-02-26 01:21:31.724024,sleep,10.04128,0.342371,1.817199,-0.055158,0.023715,-0.014389,84343
2025-02-26 01:21:31.724024,sleep,10.05565,0.361524,1.826776,-0.054891,0.023449,-0.014922,84349
2025-02-26 01:21:31.724024,sleep,10.05086,0.35913,1.793257,-0.054358,0.022383,-0.014922,84369
2025-02-26 01:21:31.724024,sleep,10.05325,0.337582,1.810017,-0.055424,0.022116,-0.014922,84339
2025-02-26 01:21:31.724024,sleep,10.05325,0.351948,1.824382,-0.054625,0.023449,-0.014655,84433
2025-02-26 01:21:31.724024,sleep,10.04368,0.361524,1.812411,-0.055158,0.021583,-0.014655,84421
2025-02-26 01:21:31.724024,sleep,10.02931,0.354342,1.817199,-0.055158,0.021051,-0.014389,84429
2025-02-26 01:21:31.724024,sleep,10.05804,0.35913,1.814805,-0.056224,0.024515,-0.014389,84455
2025-02-26 01:21:31.724024,sleep,10.05565,0.363919,1.819593,-0.054358,0.020518,-0.015988,84487
2025-02-26 01:21:31.724024,sleep,10.06044,0.356736,1.821988,-0.054891,0.020518,-0.016521,84472
2025-02-26 01:21:31.724024,sleep,10.04128,0.35913,1.802834,-0.054891,0.023449,-0.014655,84449
2025-02-26 01:21:31.724024,sleep,10.0317,0.368707,1.814805,-0.054092,0.021583,-0.015455,84346
2025-02-26 01:21:31.724024,sleep,10.04607,0.347159,1.824382,-0.053825,0.022383,-0.015188,84228
2025-02-26 01:21:31.724024,sleep,10.05804,0.363919,1.814805,-0.055158,0.022916,-0.013323,84136
2025-02-26 01:21:31.724024,sleep,10.05565,0.354342,1.817199,-0.054358,0.023449,-0.015988,84107
2025-02-26 01:21:31.724024,sleep,10.06044,0.354342,1.812411,-0.055424,0.022649,-0.015721,84113
2025-02-26 01:21:31.724024,sleep,10.05325,0.349553,1.817199,-0.055424,0.024515,-0.013856,84140
2025-02-26 01:21:31.724024,sleep,10.04846,0.349553,1.814805,-0.055424,0.024515,-0.014389,84116
2025-02-26 01:21:31.724024,sleep,10.05325,0.35913,1.833959,-0.055158,0.023182,-0.013856,84084
2025-02-26 01:21:31.724024,sleep,10.03649,0.339977,1.812411,-0.054891,0.022649,-0.014389,84073
2025-02-26 01:21:31.724024,sleep,10.04846,0.354342,1.819593,-0.055158,0.023449,-0.014389,84075
2025-02-26 01:21:31.724024,sleep,10.04607,0.380678,1.836353,-0.055424,0.022649,-0.014389,84045
2025-02-26 01:21:31.724024,sleep,10.0317,0.356736,1.819593,-0.054358,0.020784,-0.014389,83989
2025-02-26 01:21:31.724024,sleep,10.06522,0.363919,1.831564,-0.055424,0.024781,-0.014123,84051
2025-02-26 01:21:31.724024,sleep,10.05325,0.356736,1.850718,-0.055424,0.022383,-0.014389,84052
2025-02-26 01:21:31.724024,sleep,10.05565,0.356736,1.836353,-0.054891,0.020518,-0.015188,84069
2025-02-26 01:21:31.724024,sleep,10.07001,0.349553,1.824382,-0.054625,0.02185,-0.014389,84122
2025-02-26 01:21:31.724024,sleep,10.06522,0.335188,1.833959,-0.055424,0.022383,-0.015188,84131
2025-02-26 01:21:31.724024,sleep,10.04607,0.349553,1.802834,-0.055957,0.022116,-0.015188,84113
2025-02-26 01:21:31.724024,sleep,10.04128,0.371101,1.798046,-0.055957,0.024781,-0.014922,84109
2025-02-26 01:21:31.724024,sleep,10.04128,0.356736,1.814805,-0.054358,0.024781,-0.014655,84139
2025-02-26 01:21:31.724024,sleep,10.05565,0.349553,1.824382,-0.055691,0.023982,-0.015188,84209
2025-02-26 01:21:31.724024,sleep,10.03649,0.3304,1.814805,-0.055691,0.025047,-0.015721,84249
2025-02-26 01:21:31.724024,sleep,10.04128,0.356736,1.817199,-0.055158,0.023182,-0.014655,84214
2025-02-26 01:21:31.724024,sleep,10.0317,0.337582,1.812411,-0.055691,0.023449,-0.015188,84154
2025-02-26 01:21:31.724024,sleep,10.07001,0.356736,1.814805,-0.055158,0.022649,-0.015188,84139
2025-02-26 01:21:31.724024,sleep,10.05804,0.349553,1.805228,-0.055691,0.022649,-0.014922,84115
2025-02-26 01:21:31.724024,sleep,10.03889,0.347159,1.821988,-0.055424,0.023182,-0.015188,84139
2025-02-26 01:21:31.724024,sleep,10.0341,0.337582,1.80044,-0.055424,0.022649,-0.014123,84157
2025-02-26 01:21:31.724024,sleep,10.04128,0.347159,1.807622,-0.055691,0.022649,-0.014922,84190
2025-02-26 01:21:31.724024,sleep,10.05565,0.3304,1.793257,-0.055424,0.022383,-0.014655,84161
2025-02-26 01:21:31.724024,sleep,10.04128,0.349553,1.824382,-0.055158,0.023182,-0.013856,84144
2025-02-26 01:21:31.724024,sleep,10.04607,0.335188,1.824382,-0.055424,0.023982,-0.014123,84154
2025-02-26 01:21:31.724024,sleep,10.04846,0.354342,1.826776,-0.054891,0.024515,-0.014389,84143
2025-02-26 01:21:31.724024,sleep,10.03889,0.339977,1.80044,-0.054891,0.023982,-0.015188,84184
2025-02-26 01:21:31.724024,sleep,10.05804,0.361524,1.795651,-0.054891,0.023715,-0.014389,84101
2025-02-26 01:21:31.724024,sleep,10.04368,0.337582,1.838747,-0.055957,0.022383,-0.013856,84100
2025-02-26 01:21:31.724024,sleep,10.04846,0.368707,1.838747,-0.054891,0.022649,-0.014389,84128
2025-02-26 01:21:31.724024,sleep,10.04846,0.363919,1.814805,-0.054625,0.023182,-0.014922,84170
2025-02-26 01:21:31.724024,sleep,10.04607,0.378284,1.82917,-0.054625,0.024515,-0.014389,84228
2025-02-26 01:21:31.724024,sleep,10.06044,0.356736,1.810017,-0.055691,0.022383,-0.014123,84208
2025-02-26 01:21:31.724024,sleep,10.03889,0.354342,1.78368,-0.055424,0.022916,-0.014922,84243
2025-02-26 01:21:31.724024,sleep,10.04846,0.363919,1.78368,-0.055158,0.022649,-0.014389,84234
2025-02-26 01:21:31.724024,sleep,10.04368,0.356736,1.788469,-0.055691,0.024248,-0.014123,84294
2025-02-26 01:21:31.724024,sleep,10.04368,0.356736,1.805228,-0.055158,0.023715,-0.013856,84342
2025-02-26 01:21:31.724024,sleep,10.04128,0.373495,1.793257,-0.054891,0.024248,-0.014655,84360
2025-02-26 01:21:31.724024,sleep,10.06762,0.373495,1.80044,-0.054358,0.022649,-0.014655,84374
2025-02-26 01:21:31.724024,sleep,10.05565,0.347159,1.812411,-0.055691,0.022916,-0.014123,84332
2025-02-26 01:21:31.724024,sleep,10.05565,0.337582,1.824382,-0.054625,0.023715,-0.014655,84268
2025-02-26 01:21:31.724024,sleep,10.03889,0.366313,1.826776,-0.054625,0.02185,-0.015455,84266
2025-02-26 01:21:31.724024,sleep,10.05086,0.373495,1.836353,-0.054358,0.023449,-0.015188,84302
2025-02-26 01:21:31.724024,sleep,10.06762,0.363919,1.872266,-0.054625,0.022649,-0.014655,84326
2025-02-26 01:21:31.724024,sleep,10.04607,0.356736,1.821988,-0.054358,0.022116,-0.015455,84341
2025-02-26 01:21:31.724024,sleep,10.05325,0.373495,1.814805,-0.054358,0.023182,-0.014389,84293
2025-02-26 01:21:31.724024,sleep,10.02692,0.371101,1.810017,-0.055424,0.023715,-0.014922,84290
2025-02-26 01:21:31.724024,sleep,10.05325,0.349553,1.831564,-0.054891,0.023182,-0.014922,84283
2025-02-26 01:21:31.724024,sleep,10.04607,0.332794,1.805228,-0.055424,0.022916,-0.014655,84284
2025-02-26 01:21:31.724024,sleep,10.04846,0.342371,1.82917,-0.055158,0.024248,-0.014922,84247
2025-02-26 01:21:31.724024,sleep,10.05325,0.371101,1.805228,-0.054092,0.020784,-0.015188,84217
2025-02-26 01:21:31.724024,sleep,10.0341,0.356736,1.798046,-0.054891,0.022916,-0.013856,84226
2025-02-26 01:21:31.724024,sleep,10.08438,0.354342,1.807622,-0.055424,0.027446,-0.01359,84282
2025-02-26 01:21:31.724024,sleep,10.05804,0.35913,1.836353,-0.055158,0.021317,-0.014655,84325
2025-02-26 01:21:31.724024,sleep,10.05086,0.37589,1.810017,-0.056224,0.020518,-0.015988,84308
2025-02-26 01:21:31.724024,sleep,10.06044,0.335188,1.821988,-0.054891,0.023715,-0.014655,84226
2025-02-26 01:21:31.724024,sleep,10.05565,0.356736,1.826776,-0.054625,0.023715,-0.014922,84226
2025-02-26 01:21:31.724024,sleep,10.03649,0.354342,1.810017,-0.054891,0.022383,-0.014922,84209
2025-02-26 01:21:31.724024,sleep,10.05086,0.347159,1.838747,-0.056224,0.022649,-0.013856,84175
2025-02-26 01:21:31.724024,sleep,10.04128,0.354342,1.812411,-0.055424,0.022916,-0.014922,84124
2025-02-26 01:21:31.724024,sleep,10.04128,0.366313,1.826776,-0.055158,0.023982,-0.014655,84110
