Timestamp,Label,AccelX,AccelY,AccelZ,GyroX,GyroY,GyroZ,IR
2025-02-26 00:57:33.339763,sleep,9.847352,1.070208,-0.878672,-0.055424,0.023449,-0.014922,115778
2025-02-26 00:57:33.339763,sleep,9.856929,1.072602,-0.878672,-0.055691,0.023715,-0.014922,115993
2025-02-26 00:57:33.339763,sleep,9.868899,1.072602,-0.861913,-0.055424,0.024515,-0.014389,115964
2025-02-26 00:57:33.339763,sleep,9.873688,1.060631,-0.888249,-0.054358,0.024515,-0.014655,115992
2025-02-26 00:57:33.339763,sleep,9.835381,1.070208,-0.890643,-0.054092,0.022116,-0.014922,115983
2025-02-26 00:57:33.339763,sleep,9.825804,1.074997,-0.90022,-0.054891,0.023182,-0.014123,115928
2025-02-26 00:57:33.339763,sleep,9.842564,1.077391,-0.890643,-0.055691,0.025314,-0.013856,115957
2025-02-26 00:57:33.339763,sleep,9.835381,1.074997,-0.885855,-0.054358,0.022116,-0.014922,115999
2025-02-26 00:57:33.339763,sleep,9.847352,1.077391,-0.897826,-0.054891,0.020784,-0.014922,115827
2025-02-26 00:57:33.339763,sleep,9.82341,1.067814,-0.888249,-0.053825,0.02185,-0.015455,115419
2025-02-26 00:57:33.339763,sleep,9.85214,1.06542,-0.895431,-0.055424,0.023449,-0.015188,114866
2025-02-26 00:57:33.339763,sleep,9.866506,1.084573,-0.90022,-0.055424,0.023182,-0.014922,114276
2025-02-26 00:57:33.339763,sleep,9.842564,1.098939,-0.881066,-0.055158,0.023715,-0.014123,113868
2025-02-26 00:57:33.339763,sleep,9.847352,1.067814,-0.881066,-0.054625,0.023449,-0.014389,113645
2025-02-26 00:57:33.339763,sleep,9.856929,1.070208,-0.881066,-0.054092,0.023715,-0.013323,113645
2025-02-26 00:57:33.339763,sleep,9.835381,1.070208,-0.893037,-0.054358,0.022383,-0.014123,113620
2025-02-26 00:57:33.339763,sleep,9.818622,1.074997,-0.881066,-0.054092,0.023449,-0.015188,113757
2025-02-26 00:57:33.339763,sleep,9.835381,1.089362,-0.912191,-0.055424,0.022649,-0.014123,113915
2025-02-26 00:57:33.339763,sleep,9.844957,1.06542,-0.895431,-0.054358,0.022916,-0.013323,114003
2025-02-26 00:57:33.339763,sleep,9.830592,1.070208,-0.885855,-0.054891,0.024248,-0.013856,114113
2025-02-26 00:57:33.339763,sleep,9.842564,1.063026,-0.866701,-0.055158,0.024515,-0.014389,114187
2025-02-26 00:57:33.339763,sleep,9.873688,1.058237,-0.88346,-0.055691,0.024248,-0.014123,114285
2025-02-26 00:57:33.339763,sleep,9.821015,1.079785,-0.878672,-0.054625,0.021583,-0.014655,114381
2025-02-26 00:57:33.339763,sleep,9.842564,1.051055,-0.890643,-0.054891,0.026113,-0.014123,114480
2025-02-26 00:57:33.339763,sleep,9.842564,1.070208,-0.857124,-0.055691,0.024781,-0.014123,114575
2025-02-26 00:57:33.339763,sleep,9.844957,1.067814,-0.864307,-0.054625,0.023182,-0.014389,114698
2025-02-26 00:57:33.339763,sleep,9.821015,1.082179,-0.890643,-0.053292,0.021583,-0.015188,114653
2025-02-26 00:57:33.339763,sleep,9.840169,1.067814,-0.876278,-0.054625,0.022383,-0.01359,114629
2025-02-26 00:57:33.339763,sleep,9.842564,1.06542,-0.912191,-0.054891,0.021317,-0.014655,114664
2025-02-26 00:57:33.339763,sleep,9.849746,1.060631,-0.890643,-0.055158,0.023982,-0.015188,114691
2025-02-26 00:57:33.339763,sleep,9.856929,1.082179,-0.88346,-0.055691,0.024781,-0.014389,114688
2025-02-26 00:57:33.339763,sleep,9.844957,1.06542,-0.869095,-0.054625,0.023982,-0.013856,114613
2025-02-26 00:57:33.339763,sleep,9.844957,1.058237,-0.912191,-0.055424,0.023449,-0.013856,114573
2025-02-26 00:57:33.339763,sleep,9.849746,1.072602,-0.893037,-0.054358,0.021583,-0.014655,114592
2025-02-26 00:57:33.339763,sleep,9.859323,1.074997,-0.878672,-0.054891,0.022916,-0.015455,114583
2025-02-26 00:57:33.339763,sleep,9.85214,1.070208,-0.90022,-0.054358,0.023715,-0.014655,114636
2025-02-26 00:57:33.339763,sleep,9.856929,1.091756,-0.88346,-0.055158,0.023449,-0.014922,114610
2025-02-26 00:57:33.339763,sleep,9.849746,1.084573,-0.857124,-0.054891,0.023182,-0.014123,114660
2025-02-26 00:57:33.339763,sleep,9.842564,1.077391,-0.909797,-0.054625,0.023449,-0.014655,114583
2025-02-26 00:57:33.339763,sleep,9.854534,1.077391,-0.895431,-0.055691,0.023715,-0.014655,114850
2025-02-26 00:57:33.339763,sleep,9.849746,1.079785,-0.90022,-0.054625,0.025314,-0.014389,114902
2025-02-26 00:57:33.339763,sleep,9.85214,1.06542,-0.90022,-0.055691,0.024515,-0.014389,115010
2025-02-26 00:57:33.339763,sleep,9.828198,1.074997,-0.897826,-0.055158,0.024515,-0.014123,115059
2025-02-26 00:57:33.339763,sleep,9.844957,1.084573,-0.897826,-0.054891,0.023715,-0.014655,115109
2025-02-26 00:57:33.339763,sleep,9.840169,1.067814,-0.881066,-0.054625,0.024781,-0.014389,115181
2025-02-26 00:57:33.339763,sleep,9.840169,1.077391,-0.890643,-0.054358,0.024248,-0.014123,115249
2025-02-26 00:57:33.339763,sleep,9.85214,1.077391,-0.881066,-0.054625,0.023715,-0.014922,115367
2025-02-26 00:57:33.339763,sleep,9.847352,1.06542,-0.912191,-0.054625,0.024781,-0.013856,115421
2025-02-26 00:57:33.339763,sleep,9.837775,1.072602,-0.895431,-0.055691,0.023982,-0.014123,115402
2025-02-26 00:57:33.339763,sleep,9.864111,1.06542,-0.916979,-0.055691,0.022116,-0.014655,115410
2025-02-26 00:57:33.339763,sleep,9.825804,1.074997,-0.902614,-0.055424,0.022383,-0.015188,115401
2025-02-26 00:57:33.339763,sleep,9.854534,1.079785,-0.916979,-0.054358,0.024248,-0.014123,115440
2025-02-26 00:57:33.339763,sleep,9.847352,1.06542,-0.895431,-0.053559,0.023449,-0.014922,115483
2025-02-26 00:57:33.339763,sleep,9.85214,1.082179,-0.888249,-0.054891,0.023982,-0.014389,115568
2025-02-26 00:57:33.339763,sleep,9.840169,1.082179,-0.916979,-0.054891,0.024515,-0.014922,115586
2025-02-26 00:57:33.339763,sleep,9.85214,1.058237,-0.885855,-0.054891,0.023449,-0.01359,115588
2025-02-26 00:57:33.339763,sleep,9.849746,1.055843,-0.873884,-0.054891,0.025314,-0.014123,115571
2025-02-26 00:57:33.339763,sleep,9.825804,1.079785,-0.902614,-0.054358,0.023982,-0.015455,115556
2025-02-26 00:57:33.339763,sleep,9.856929,1.074997,-0.893037,-0.054625,0.022649,-0.014655,115559
2025-02-26 00:57:33.339763,sleep,9.849746,1.06542,-0.902614,-0.055424,0.024515,-0.014123,115523
2025-02-26 00:57:33.339763,sleep,9.85214,1.082179,-0.895431,-0.055424,0.023449,-0.01359,115508
2025-02-26 00:57:33.339763,sleep,9.859323,1.063026,-0.876278,-0.054891,0.023982,-0.014123,115569
2025-02-26 00:57:33.339763,sleep,9.856929,1.082179,-0.890643,-0.054625,0.023715,-0.014922,115559
2025-02-26 00:57:33.339763,sleep,9.832987,1.063026,-0.869095,-0.054625,0.024515,-0.014655,115671
2025-02-26 00:57:33.339763,sleep,9.844957,1.084573,-0.897826,-0.055158,0.023715,-0.015455,115691
2025-02-26 00:57:33.339763,sleep,9.849746,1.070208,-0.905008,-0.055158,0.023449,-0.014922,115741
2025-02-26 00:57:33.339763,sleep,9.818622,1.070208,-0.888249,-0.054625,0.022916,-0.014655,115743
2025-02-26 00:57:33.339763,sleep,9.832987,1.072602,-0.866701,-0.054891,0.025047,-0.014389,115752
2025-02-26 00:57:33.339763,sleep,9.830592,1.070208,-0.869095,-0.057289,0.024515,-0.014123,115853
2025-02-26 00:57:33.339763,sleep,9.856929,1.070208,-0.897826,-0.055424,0.024781,-0.014389,115937
2025-02-26 00:57:33.339763,sleep,9.859323,1.077391,-0.909797,-0.054891,0.023982,-0.013856,115865
2025-02-26 00:57:33.339763,sleep,9.835381,1.063026,-0.912191,-0.054358,0.022916,-0.014123,115959
2025-02-26 00:57:33.339763,sleep,9.854534,1.084573,-0.916979,-0.055158,0.025314,-0.014922,115909
2025-02-26 00:57:33.339763,sleep,9.844957,1.091756,-0.916979,-0.055957,0.025847,-0.014123,115908
2025-02-26 00:57:33.339763,sleep,9.842564,1.096544,-0.861913,-0.055158,0.022383,-0.015188,115883
2025-02-26 00:57:33.339763,sleep,9.85214,1.070208,-0.873884,-0.054358,0.020784,-0.015455,115681
2025-02-26 00:57:33.339763,sleep,9.849746,1.072602,-0.895431,-0.054625,0.023182,-0.014389,115243
2025-02-26 00:57:33.339763,sleep,9.825804,1.060631,-0.90022,-0.056224,0.025047,-0.013856,114678
2025-02-26 00:57:33.339763,sleep,9.837775,1.082179,-0.857124,-0.055158,0.025847,-0.014655,114153
2025-02-26 00:57:33.339763,sleep,9.868899,1.055843,-0.864307,-0.05649,0.023449,-0.014389,113804
2025-02-26 00:57:33.339763,sleep,9.864111,1.067814,-0.888249,-0.055691,0.022649,-0.014655,113625
2025-02-26 00:57:33.339763,sleep,9.85214,1.063026,-0.885855,-0.054092,0.023982,-0.014123,113579
2025-02-26 00:57:33.339763,sleep,9.837775,1.046266,-0.88346,-0.054625,0.022649,-0.013856,113592
2025-02-26 00:57:33.339763,sleep,9.828198,1.079785,-0.919373,-0.055424,0.024515,-0.014655,113702
2025-02-26 00:57:33.339763,sleep,9.861717,1.067814,-0.902614,-0.055424,0.022916,-0.015455,113841
2025-02-26 00:57:33.339763,sleep,9.854534,1.072602,-0.914585,-0.055158,0.023182,-0.014655,113983
2025-02-26 00:57:33.339763,sleep,9.856929,1.072602,-0.916979,-0.054625,0.025314,-0.013323,114069
2025-02-26 00:57:33.339763,sleep,9.876082,1.06542,-0.878672,-0.055158,0.025847,-0.014123,114260
2025-02-26 00:57:33.339763,sleep,9.854534,1.051055,-0.912191,-0.055424,0.023982,-0.014123,114334
2025-02-26 00:57:33.339763,sleep,9.80665,1.067814,-0.90022,-0.055424,0.02558,-0.014123,114377
2025-02-26 00:57:33.339763,sleep,9.847352,1.058237,-0.88346,-0.055158,0.025314,-0.01359,114502
2025-02-26 00:57:33.339763,sleep,9.842564,1.074997,-0.909797,-0.055957,0.024781,-0.013856,114642
2025-02-26 00:57:33.339763,sleep,9.85214,1.06542,-0.897826,-0.055158,0.024248,-0.014655,114867
2025-02-26 00:57:33.339763,sleep,9.842564,1.082179,-0.897826,-0.055158,0.023449,-0.013856,114923
2025-02-26 00:57:33.339763,sleep,9.844957,1.074997,-0.878672,-0.054092,0.021317,-0.015188,114927
2025-02-26 00:57:33.339763,sleep,9.859323,1.077391,-0.907402,-0.054092,0.023182,-0.015455,114867
2025-02-26 00:57:33.339763,sleep,9.849746,1.072602,-0.90022,-0.055424,0.024781,-0.014389,114791
2025-02-26 00:57:33.339763,sleep,9.830592,1.074997,-0.921768,-0.055691,0.025047,-0.014123,114743
2025-02-26 00:57:33.339763,sleep,9.847352,1.058237,-0.878672,-0.055158,0.024515,-0.014123,114768
2025-02-26 00:57:33.339763,sleep,9.835381,1.055843,-0.881066,-0.055424,0.024248,-0.015188,114799
2025-02-26 00:57:33.339763,sleep,9.844957,1.060631,-0.864307,-0.055424,0.024248,-0.014123,114891
2025-02-26 00:57:33.339763,sleep,9.825804,1.074997,-0.888249,-0.055424,0.024515,-0.014123,114882
2025-02-26 00:57:33.339763,sleep,9.844957,1.067814,-0.873884,-0.055424,0.024248,-0.014123,114834
2025-02-26 00:57:33.339763,sleep,9.849746,1.082179,-0.881066,-0.054092,0.022649,-0.014922,114882
2025-02-26 00:57:33.339763,sleep,9.849746,1.070208,-0.878672,-0.055158,0.023182,-0.015188,114897
2025-02-26 00:57:33.339763,sleep,9.878476,1.084573,-0.866701,-0.054891,0.024248,-0.013856,114943
2025-02-26 00:57:33.339763,sleep,9.828198,1.06542,-0.909797,-0.055158,0.025047,-0.014655,114975
2025-02-26 00:57:33.339763,sleep,9.844957,1.077391,-0.90022,-0.054625,0.025047,-0.014389,115015
2025-02-26 00:57:33.339763,sleep,9.849746,1.074997,-0.919373,-0.055424,0.023715,-0.014123,115158
2025-02-26 00:57:33.339763,sleep,9.844957,1.063026,-0.902614,-0.055424,0.025047,-0.013856,115210
2025-02-26 00:57:33.339763,sleep,9.854534,1.04866,-0.893037,-0.054625,0.024248,-0.01359,115324
2025-02-26 00:57:33.339763,sleep,9.849746,1.067814,-0.890643,-0.055158,0.024781,-0.014655,115370
2025-02-26 00:57:33.339763,sleep,9.842564,1.060631,-0.861913,-0.055424,0.024248,-0.014123,115446
2025-02-26 00:57:33.339763,sleep,9.856929,1.055843,-0.859518,-0.055158,0.024248,-0.014922,115467
2025-02-26 00:57:33.339763,sleep,9.842564,1.070208,-0.90022,-0.055158,0.023182,-0.014389,115533
2025-02-26 00:57:33.339763,sleep,9.844957,1.070208,-0.907402,-0.055158,0.023182,-0.014389,115658
2025-02-26 00:57:33.339763,sleep,9.849746,1.077391,-0.852336,-0.055691,0.024248,-0.014389,115664
2025-02-26 00:57:33.339763,sleep,9.859323,1.06542,-0.916979,-0.054625,0.024248,-0.01359,115785
2025-02-26 00:57:33.339763,sleep,9.842564,1.053449,-0.885855,-0.054358,0.024781,-0.014123,115754
2025-02-26 00:57:33.339763,sleep,9.859323,1.063026,-0.888249,-0.054358,0.023449,-0.014922,115723
2025-02-26 00:57:33.339763,sleep,9.842564,1.072602,-0.871489,-0.054891,0.023982,-0.014123,115713
2025-02-26 00:57:33.339763,sleep,9.844957,1.067814,-0.881066,-0.055957,0.024248,-0.014123,115734
2025-02-26 00:57:33.339763,sleep,9.828198,1.067814,-0.897826,-0.055424,0.023449,-0.01359,115746
2025-02-26 00:57:33.339763,sleep,9.854534,1.06542,-0.897826,-0.054891,0.024515,-0.014123,115795
2025-02-26 00:57:33.339763,sleep,9.842564,1.079785,-0.881066,-0.055158,0.024515,-0.014123,115776
2025-02-26 00:57:33.339763,sleep,9.832987,1.074997,-0.909797,-0.054891,0.025047,-0.014922,115754
2025-02-26 00:57:33.339763,sleep,9.830592,1.074997,-0.895431,-0.055158,0.024515,-0.014389,115741
2025-02-26 00:57:33.339763,sleep,9.837775,1.082179,-0.893037,-0.055424,0.023715,-0.014389,115758
2025-02-26 00:57:33.339763,sleep,9.859323,1.058237,-0.890643,-0.054891,0.023182,-0.014655,115705
2025-02-26 00:57:33.339763,sleep,9.828198,1.074997,-0.885855,-0.054358,0.023182,-0.013856,115722
2025-02-26 00:57:33.339763,sleep,9.837775,1.067814,-0.878672,-0.055424,0.023715,-0.014655,115716
2025-02-26 00:57:33.339763,sleep,9.844957,1.082179,-0.890643,-0.054358,0.026113,-0.013856,115758
2025-02-26 00:57:33.339763,sleep,9.832987,1.06542,-0.885855,-0.055424,0.023982,-0.014655,115713
2025-02-26 00:57:33.339763,sleep,9.847352,1.072602,-0.866701,-0.055158,0.025314,-0.014655,115812
2025-02-26 00:57:33.339763,sleep,9.854534,1.077391,-0.885855,-0.054092,0.022916,-0.014922,115809
2025-02-26 00:57:33.339763,sleep,9.835381,1.086968,-0.907402,-0.054891,0.022649,-0.014123,115784
2025-02-26 00:57:33.339763,sleep,9.837775,1.06542,-0.893037,-0.055691,0.024515,-0.014922,115830
2025-02-26 00:57:33.339763,sleep,9.849746,1.070208,-0.90022,-0.054625,0.024515,-0.015455,115804
2025-02-26 00:57:33.339763,sleep,9.844957,1.070208,-0.902614,-0.053825,0.022649,-0.015188,115846
2025-02-26 00:57:33.339763,sleep,9.842564,1.084573,-0.897826,-0.054891,0.023982,-0.015188,115451
2025-02-26 00:57:33.339763,sleep,9.842564,1.09415,-0.907402,-0.056224,0.025047,-0.015455,114965
2025-02-26 00:57:33.339763,sleep,9.856929,1.089362,-0.869095,-0.056224,0.02558,-0.014655,114389
2025-02-26 00:57:33.339763,sleep,9.830592,1.058237,-0.859518,-0.055158,0.023715,-0.015188,113936
2025-02-26 00:57:33.339763,sleep,9.835381,1.096544,-0.885855,-0.055957,0.023182,-0.014922,113612
2025-02-26 00:57:33.339763,sleep,9.830592,1.074997,-0.876278,-0.055158,0.023182,-0.015455,113559
2025-02-26 00:57:33.339763,sleep,9.861717,1.070208,-0.890643,-0.054625,0.022916,-0.015188,113637
2025-02-26 00:57:33.339763,sleep,9.835381,1.074997,-0.907402,-0.054625,0.022649,-0.014123,113778
2025-02-26 00:57:33.339763,sleep,9.844957,1.055843,-0.919373,-0.054092,0.024248,-0.014922,113870
2025-02-26 00:57:33.339763,sleep,9.842564,1.084573,-0.885855,-0.055158,0.022649,-0.013856,113978
2025-02-26 00:57:33.339763,sleep,9.840169,1.089362,-0.897826,-0.055424,0.024515,-0.014655,114056
2025-02-26 00:57:33.339763,sleep,9.842564,1.070208,-0.933739,-0.055158,0.025314,-0.01359,114204
2025-02-26 00:57:33.339763,sleep,9.844957,1.053449,-0.881066,-0.054625,0.023715,-0.013856,114219
2025-02-26 00:57:33.339763,sleep,9.849746,1.089362,-0.902614,-0.055158,0.025047,-0.014655,114250
2025-02-26 00:57:33.339763,sleep,9.821015,1.070208,-0.905008,-0.055957,0.026113,-0.013856,114379
2025-02-26 00:57:33.339763,sleep,9.85214,1.089362,-0.878672,-0.055691,0.023982,-0.014655,114559
2025-02-26 00:57:33.339763,sleep,9.859323,1.067814,-0.90022,-0.054625,0.023182,-0.014123,114692
2025-02-26 00:57:33.339763,sleep,9.830592,1.091756,-0.912191,-0.054092,0.021583,-0.014389,114783
2025-02-26 00:57:33.339763,sleep,9.840169,1.084573,-0.897826,-0.053559,0.022116,-0.014655,114745
2025-02-26 00:57:33.339763,sleep,9.849746,1.079785,-0.881066,-0.055691,0.023715,-0.014922,114745
2025-02-26 00:57:33.339763,sleep,9.876082,1.060631,-0.921768,-0.055691,0.024248,-0.013856,114728
2025-02-26 00:57:33.339763,sleep,9.866506,1.082179,-0.909797,-0.055691,0.024781,-0.014922,114742
2025-02-26 00:57:33.339763,sleep,9.849746,1.060631,-0.895431,-0.055158,0.024248,-0.015988,114727
2025-02-26 00:57:33.339763,sleep,9.837775,1.077391,-0.888249,-0.054891,0.024781,-0.014922,114699
2025-02-26 00:57:33.339763,sleep,9.856929,1.067814,-0.897826,-0.055158,0.02185,-0.015188,114671
2025-02-26 00:57:33.339763,sleep,9.85214,1.063026,-0.876278,-0.054092,0.022649,-0.014655,114628
2025-02-26 00:57:33.339763,sleep,9.849746,1.086968,-0.897826,-0.054891,0.025047,-0.013856,114634
2025-02-26 00:57:33.339763,sleep,9.847352,1.077391,-0.878672,-0.055158,0.023982,-0.014389,114665
2025-02-26 00:57:33.339763,sleep,9.847352,1.072602,-0.895431,-0.055424,0.023982,-0.014922,114758
2025-02-26 00:57:33.339763,sleep,9.854534,1.067814,-0.905008,-0.055158,0.024781,-0.014922,114879
2025-02-26 00:57:33.339763,sleep,9.813833,1.060631,-0.871489,-0.054891,0.025314,-0.014123,114962
2025-02-26 00:57:33.339763,sleep,9.844957,1.070208,-0.88346,-0.055691,0.024781,-0.014655,114938
2025-02-26 00:57:33.339763,sleep,9.842564,1.070208,-0.873884,-0.055158,0.026913,-0.014123,114989
2025-02-26 00:57:33.339763,sleep,9.849746,1.058237,-0.890643,-0.054092,0.023982,-0.013856,115034
2025-02-26 00:57:33.339763,sleep,9.835381,1.06542,-0.895431,-0.054891,0.025047,-0.014389,115079
2025-02-26 00:57:33.339763,sleep,9.856929,1.074997,-0.857124,-0.054625,0.023182,-0.01359,115053
2025-02-26 00:57:33.339763,sleep,9.847352,1.072602,-0.912191,-0.054092,0.023182,-0.014655,115157
2025-02-26 00:57:33.339763,sleep,9.849746,1.070208,-0.895431,-0.055158,0.023449,-0.014389,115219
2025-02-26 00:57:33.339763,sleep,9.85214,1.067814,-0.885855,-0.054625,0.023182,-0.014389,115279
2025-02-26 00:57:33.339763,sleep,9.85214,1.086968,-0.897826,-0.055424,0.022649,-0.014655,115374
2025-02-26 00:57:33.339763,sleep,9.85214,1.074997,-0.905008,-0.055424,0.022649,-0.01359,115434
2025-02-26 00:57:33.339763,sleep,9.847352,1.067814,-0.895431,-0.054358,0.023182,-0.015188,115485
2025-02-26 00:57:33.339763,sleep,9.85214,1.074997,-0.909797,-0.055158,0.022916,-0.014389,115500
2025-02-26 00:57:33.339763,sleep,9.847352,1.072602,-0.876278,-0.054625,0.024248,-0.014389,115575
2025-02-26 00:57:33.339763,sleep,9.818622,1.06542,-0.881066,-0.054625,0.023182,-0.014655,115660
2025-02-26 00:57:33.339763,sleep,9.835381,1.079785,-0.905008,-0.055424,0.025047,-0.015188,115727
2025-02-26 00:57:33.339763,sleep,9.825804,1.070208,-0.895431,-0.055424,0.023715,-0.014389,115752
2025-02-26 00:57:33.339763,sleep,9.847352,1.077391,-0.897826,-0.054625,0.023982,-0.015188,115704
2025-02-26 00:57:33.339763,sleep,9.85214,1.077391,-0.916979,-0.055158,0.024781,-0.014655,115657
2025-02-26 00:57:33.339763,sleep,9.832987,1.074997,-0.919373,-0.055424,0.024248,-0.014922,115671
2025-02-26 00:57:33.339763,sleep,9.840169,1.084573,-0.897826,-0.054891,0.025314,-0.014922,115692
2025-02-26 00:57:33.339763,sleep,9.844957,1.084573,-0.897826,-0.053825,0.023982,-0.014389,115741
2025-02-26 00:57:33.339763,sleep,9.842564,1.074997,-0.893037,-0.054891,0.023715,-0.014655,115782
2025-02-26 00:57:33.339763,sleep,9.835381,1.06542,-0.888249,-0.054625,0.024781,-0.014389,115759
2025-02-26 00:57:33.339763,sleep,9.849746,1.070208,-0.876278,-0.054358,0.024248,-0.014123,115738
2025-02-26 00:57:33.339763,sleep,9.854534,1.084573,-0.881066,-0.054891,0.023982,-0.013323,115744
2025-02-26 00:57:33.339763,sleep,9.840169,1.079785,-0.912191,-0.055691,0.023182,-0.015721,115718
2025-02-26 00:57:33.339763,sleep,9.854534,1.06542,-0.881066,-0.054625,0.023182,-0.014655,115724
2025-02-26 00:57:33.339763,sleep,9.840169,1.079785,-0.897826,-0.054625,0.022116,-0.014655,115719
2025-02-26 00:57:33.339763,sleep,9.844957,1.091756,-0.909797,-0.056224,0.025047,-0.013856,115742
2025-02-26 00:57:33.339763,sleep,9.847352,1.074997,-0.888249,-0.055424,0.023982,-0.014389,115780
2025-02-26 00:57:33.339763,sleep,9.883265,1.077391,-0.893037,-0.054625,0.022116,-0.015988,115931
2025-02-26 00:57:33.339763,sleep,9.864111,1.074997,-0.940921,-0.054891,0.02185,-0.015188,115532
2025-02-26 00:57:33.339763,sleep,9.847352,1.055843,-0.90022,-0.054092,0.022916,-0.015721,114998
2025-02-26 00:57:33.339763,sleep,9.847352,1.084573,-0.866701,-0.055691,0.023982,-0.014123,114403
2025-02-26 00:57:33.339763,sleep,9.847352,1.077391,-0.859518,-0.055691,0.023982,-0.014655,113896
2025-02-26 00:57:33.339763,sleep,9.832987,1.067814,-0.878672,-0.055158,0.024248,-0.014123,113546
2025-02-26 00:57:33.339763,sleep,9.825804,1.074997,-0.893037,-0.054625,0.022916,-0.014655,113417
2025-02-26 00:57:33.339763,sleep,9.849746,1.079785,-0.890643,-0.055158,0.022649,-0.015721,113411
2025-02-26 00:57:33.339763,sleep,9.832987,1.084573,-0.912191,-0.054358,0.023182,-0.014655,113896
2025-02-26 00:57:33.339763,sleep,9.835381,1.072602,-0.909797,-0.054625,0.022116,-0.014655,113639
2025-02-26 00:57:33.339763,sleep,9.849746,1.070208,-0.926556,-0.054358,0.023182,-0.015455,113783
2025-02-26 00:57:33.339763,sleep,9.837775,1.063026,-0.919373,-0.054358,0.024248,-0.01359,113411
2025-02-26 00:57:33.339763,sleep,9.842564,1.067814,-0.912191,-0.054625,0.025047,-0.014123,113948
2025-02-26 00:57:33.339763,sleep,9.840169,1.077391,-0.893037,-0.054891,0.026646,-0.014655,114058
2025-02-26 00:57:33.339763,sleep,9.864111,1.06542,-0.869095,-0.054625,0.023449,-0.014123,114112
2025-02-26 00:57:33.339763,sleep,9.837775,1.079785,-0.890643,-0.055424,0.02638,-0.013323,114236
2025-02-26 00:57:33.339763,sleep,9.844957,1.060631,-0.914585,-0.056224,0.027446,-0.014655,114402
2025-02-26 00:57:33.339763,sleep,9.842564,1.077391,-0.859518,-0.054891,0.023982,-0.014655,114487
2025-02-26 00:57:33.339763,sleep,9.861717,1.070208,-0.893037,-0.053825,0.024248,-0.015988,114532
2025-02-26 00:57:33.339763,sleep,9.849746,1.060631,-0.893037,-0.053825,0.021051,-0.015188,114629
2025-02-26 00:57:33.339763,sleep,9.847352,1.06542,-0.890643,-0.054625,0.022649,-0.015188,114498
2025-02-26 00:57:33.339763,sleep,9.85214,1.072602,-0.881066,-0.054625,0.023182,-0.015455,114510
2025-02-26 00:57:33.339763,sleep,9.849746,1.055843,-0.881066,-0.054092,0.024515,-0.01359,114553
2025-02-26 00:57:33.339763,sleep,9.844957,1.072602,-0.893037,-0.054891,0.024515,-0.013856,114497
2025-02-26 00:57:33.339763,sleep,9.837775,1.067814,-0.902614,-0.055158,0.024781,-0.013856,114465
2025-02-26 00:57:33.339763,sleep,9.837775,1.060631,-0.888249,-0.054891,0.022649,-0.013856,114434
2025-02-26 00:57:33.339763,sleep,9.844957,1.079785,-0.888249,-0.054358,0.022916,-0.014655,114430
2025-02-26 00:57:33.339763,sleep,9.85214,1.072602,-0.905008,-0.054891,0.022383,-0.014655,114457
2025-02-26 00:57:33.339763,sleep,9.854534,1.055843,-0.876278,-0.055158,0.023715,-0.014123,114454
2025-02-26 00:57:33.339763,sleep,9.876082,1.063026,-0.90022,-0.055158,0.023182,-0.014655,114494
2025-02-26 00:57:33.339763,sleep,9.849746,1.067814,-0.902614,-0.055158,0.023715,-0.014655,114578
2025-02-26 00:57:33.339763,sleep,9.825804,1.067814,-0.890643,-0.055424,0.023715,-0.015188,114640
2025-02-26 00:57:33.339763,sleep,9.832987,1.074997,-0.905008,-0.055158,0.023982,-0.014922,114758
2025-02-26 00:57:33.339763,sleep,9.832987,1.072602,-0.88346,-0.055424,0.023715,-0.014123,114823
2025-02-26 00:57:33.339763,sleep,9.842564,1.072602,-0.907402,-0.053559,0.025047,-0.014123,114892
2025-02-26 00:57:33.339763,sleep,9.849746,1.082179,-0.912191,-0.054891,0.023982,-0.014123,114640
2025-02-26 00:57:33.339763,sleep,9.847352,1.084573,-0.90022,-0.055158,0.024781,-0.01359,114998
2025-02-26 00:57:33.339763,sleep,9.821015,1.067814,-0.912191,-0.055158,0.023449,-0.015188,115120
2025-02-26 00:57:33.339763,sleep,9.847352,1.06542,-0.876278,-0.054358,0.023982,-0.014655,115208
2025-02-26 00:57:33.339763,sleep,9.840169,1.077391,-0.890643,-0.054625,0.024248,-0.014922,115237
2025-02-26 00:57:33.339763,sleep,9.844957,1.070208,-0.876278,-0.055158,0.023715,-0.014922,115263
2025-02-26 00:57:33.339763,sleep,9.856929,1.067814,-0.895431,-0.055158,0.023715,-0.014922,115239
2025-02-26 00:57:33.339763,sleep,9.868899,1.074997,-0.912191,-0.054625,0.023982,-0.014655,115262
2025-02-26 00:57:33.339763,sleep,9.849746,1.079785,-0.897826,-0.054625,0.023982,-0.014922,115285
2025-02-26 00:57:33.339763,sleep,9.847352,1.072602,-0.909797,-0.055158,0.023182,-0.014922,115334
2025-02-26 00:57:33.339763,sleep,9.861717,1.077391,-0.893037,-0.055691,0.023449,-0.014389,115395
2025-02-26 00:57:33.339763,sleep,9.864111,1.084573,-0.871489,-0.054891,0.024248,-0.014123,115453
2025-02-26 00:57:33.339763,sleep,9.849746,1.070208,-0.885855,-0.054891,0.024515,-0.013323,115394
2025-02-26 00:57:33.339763,sleep,9.854534,1.082179,-0.881066,-0.054891,0.023182,-0.014922,115422
2025-02-26 00:57:33.339763,sleep,9.861717,1.070208,-0.88346,-0.054891,0.023449,-0.01359,115435
2025-02-26 00:57:33.339763,sleep,9.844957,1.072602,-0.885855,-0.053825,0.023449,-0.015455,115419
2025-02-26 00:57:33.339763,sleep,9.85214,1.089362,-0.890643,-0.055158,0.023982,-0.014123,115398
2025-02-26 00:57:33.339763,sleep,9.849746,1.077391,-0.88346,-0.055158,0.023982,-0.014123,115400
2025-02-26 00:57:33.339763,sleep,9.840169,1.084573,-0.905008,-0.054625,0.024515,-0.014655,115418
2025-02-26 00:57:33.339763,sleep,9.832987,1.070208,-0.912191,-0.054625,0.023982,-0.015188,115419
2025-02-26 00:57:33.339763,sleep,9.844957,1.091756,-0.909797,-0.054891,0.022916,-0.015188,115499
2025-02-26 00:57:33.339763,sleep,9.830592,1.079785,-0.897826,-0.055691,0.023715,-0.013856,115560
2025-02-26 00:57:33.339763,sleep,9.854534,1.091756,-0.893037,-0.055424,0.023182,-0.014655,115418
2025-02-26 00:57:33.339763,sleep,9.85214,1.074997,-0.905008,-0.054625,0.023715,-0.015188,115618
2025-02-26 00:57:33.339763,sleep,9.842564,1.067814,-0.885855,-0.055158,0.022383,-0.015188,115646
2025-02-26 00:57:33.339763,sleep,9.832987,1.072602,-0.909797,-0.054891,0.023982,-0.015188,115700
2025-02-26 00:57:33.339763,sleep,9.830592,1.077391,-0.921768,-0.054625,0.023715,-0.014389,115807
2025-02-26 00:57:33.339763,sleep,9.825804,1.077391,-0.902614,-0.055158,0.025047,-0.014655,115845
2025-02-26 00:57:33.339763,sleep,9.840169,1.070208,-0.914585,-0.054891,0.024248,-0.015455,115835
2025-02-26 00:57:33.339763,sleep,9.849746,1.070208,-0.897826,-0.055424,0.022916,-0.014922,115865
2025-02-26 00:57:33.339763,sleep,9.840169,1.074997,-0.90022,-0.055158,0.022383,-0.014123,115840
2025-02-26 00:57:33.339763,sleep,9.844957,1.063026,-0.878672,-0.055691,0.024515,-0.013856,115772
2025-02-26 00:57:33.339763,sleep,9.847352,1.067814,-0.881066,-0.056224,0.025847,-0.013856,115821
2025-02-26 00:57:33.339763,sleep,9.856929,1.072602,-0.897826,-0.055158,0.022649,-0.014922,115776
2025-02-26 00:57:33.339763,sleep,9.85214,1.074997,-0.905008,-0.054891,0.021583,-0.015188,115515
2025-02-26 00:57:33.339763,sleep,9.842564,1.067814,-0.902614,-0.055957,0.024515,-0.014655,114984
2025-02-26 00:57:33.339763,sleep,9.859323,1.074997,-0.885855,-0.05649,0.026113,-0.014922,114385
2025-02-26 00:57:33.339763,sleep,9.859323,1.058237,-0.897826,-0.05649,0.02638,-0.015188,113870
2025-02-26 00:57:33.339763,sleep,9.859323,1.082179,-0.897826,-0.055957,0.024781,-0.014389,113534
2025-02-26 00:57:33.339763,sleep,9.842564,1.070208,-0.873884,-0.055424,0.023982,-0.014123,113403
2025-02-26 00:57:33.339763,sleep,9.864111,1.074997,-0.905008,-0.054625,0.025314,-0.014389,113345
2025-02-26 00:57:33.339763,sleep,9.85214,1.06542,-0.905008,-0.055158,0.022916,-0.014389,113470
2025-02-26 00:57:33.339763,sleep,9.842564,1.072602,-0.90022,-0.053825,0.022916,-0.014389,113592
2025-02-26 00:57:33.339763,sleep,9.837775,1.070208,-0.890643,-0.053559,0.022383,-0.014389,113704
2025-02-26 00:57:33.339763,sleep,9.871294,1.091756,-0.902614,-0.055158,0.023449,-0.013856,113886
2025-02-26 00:57:33.339763,sleep,9.849746,1.082179,-0.916979,-0.055424,0.024781,-0.014389,114028
2025-02-26 00:57:33.339763,sleep,9.849746,1.072602,-0.90022,-0.055957,0.025847,-0.01359,114127
2025-02-26 00:57:33.339763,sleep,9.85214,1.063026,-0.888249,-0.053559,0.025314,-0.014655,114163
2025-02-26 00:57:33.339763,sleep,9.837775,1.077391,-0.909797,-0.055424,0.026113,-0.014389,114293
2025-02-26 00:57:33.339763,sleep,9.844957,1.070208,-0.873884,-0.055691,0.027179,-0.013057,114436
2025-02-26 00:57:33.339763,sleep,9.837775,1.053449,-0.866701,-0.055691,0.025314,-0.014389,114583
2025-02-26 00:57:33.339763,sleep,9.871294,1.067814,-0.866701,-0.054891,0.023182,-0.014389,114710
2025-02-26 00:57:33.339763,sleep,9.842564,1.06542,-0.885855,-0.054625,0.021583,-0.014655,114780
2025-02-26 00:57:33.339763,sleep,9.835381,1.074997,-0.907402,-0.054358,0.023449,-0.014922,114744
2025-02-26 00:57:33.339763,sleep,9.861717,1.060631,-0.909797,-0.054625,0.024515,-0.014389,114692
2025-02-26 00:57:33.339763,sleep,9.854534,1.082179,-0.897826,-0.054625,0.02558,-0.013856,114643
2025-02-26 00:57:33.339763,sleep,9.835381,1.084573,-0.885855,-0.055691,0.025047,-0.01359,114631
2025-02-26 00:57:33.339763,sleep,9.842564,1.091756,-0.907402,-0.055691,0.026113,-0.014389,114659
2025-02-26 00:57:33.339763,sleep,9.840169,1.060631,-0.895431,-0.055424,0.025047,-0.013856,114682
2025-02-26 00:57:33.339763,sleep,9.844957,1.067814,-0.890643,-0.054092,0.024781,-0.014389,114628
2025-02-26 00:57:33.339763,sleep,9.844957,1.086968,-0.909797,-0.055424,0.022916,-0.015188,114654
2025-02-26 00:57:33.339763,sleep,9.856929,1.060631,-0.905008,-0.055158,0.023182,-0.014389,114675
2025-02-26 00:57:33.339763,sleep,9.861717,1.072602,-0.88346,-0.054891,0.022649,-0.014655,114708
2025-02-26 00:57:33.339763,sleep,9.849746,1.067814,-0.914585,-0.054891,0.024781,-0.014655,114763
2025-02-26 00:57:33.339763,sleep,9.842564,1.055843,-0.876278,-0.055158,0.025047,-0.014389,114769
