Timestamp,Label,AccelX,AccelY,AccelZ,GyroX,GyroY,GyroZ,IR
2025-02-26 00:41:14.294137,sleep,9.837775,1.070208,-0.931344,-0.054625,0.022116,-0.015188,114337
2025-02-26 00:41:14.294137,sleep,9.832987,1.09415,-0.940921,-0.054625,0.023982,-0.015455,114315
2025-02-26 00:41:14.294137,sleep,9.85214,1.082179,-0.97444,-0.055158,0.023182,-0.015188,114411
2025-02-26 00:41:14.294137,sleep,9.835381,1.082179,-0.948104,-0.054891,0.023715,-0.014655,114501
2025-02-26 00:41:14.294137,sleep,9.832987,1.04866,-0.940921,-0.055691,0.023715,-0.014123,114592
2025-02-26 00:41:14.294137,sleep,9.859323,1.084573,-0.969652,-0.055691,0.023182,-0.013057,114588
2025-02-26 00:41:14.294137,sleep,9.847352,1.072602,-0.94571,-0.055158,0.023449,-0.013856,114620
2025-02-26 00:41:14.294137,sleep,9.840169,1.067814,-0.948104,-0.055158,0.024781,-0.014655,114684
2025-02-26 00:41:14.294137,sleep,9.854534,1.098939,-0.950498,-0.055691,0.023449,-0.014655,114710
2025-02-26 00:41:14.294137,sleep,9.837775,1.070208,-0.940921,-0.05649,0.023715,-0.015188,114734
2025-02-26 00:41:14.294137,sleep,9.835381,1.086968,-0.962469,-0.055424,0.022649,-0.014123,114837
2025-02-26 00:41:14.294137,sleep,9.832987,1.070208,-0.94571,-0.055424,0.023715,-0.01359,114807
2025-02-26 00:41:14.294137,sleep,9.840169,1.058237,-0.940921,-0.055158,0.023449,-0.01359,114876
2025-02-26 00:41:14.294137,sleep,9.835381,1.086968,-0.94571,-0.055424,0.024248,-0.014123,114983
2025-02-26 00:41:14.294137,sleep,9.842564,1.082179,-0.991199,-0.054625,0.024248,-0.013856,115111
2025-02-26 00:41:14.294137,sleep,9.854534,1.082179,-0.952892,-0.055158,0.023449,-0.014123,115134
2025-02-26 00:41:14.294137,sleep,9.830592,1.082179,-0.948104,-0.055691,0.023449,-0.014389,114876
2025-02-26 00:41:14.294137,sleep,9.830592,1.067814,-0.952892,-0.055957,0.023715,-0.014389,115250
2025-02-26 00:41:14.294137,sleep,9.85214,1.063026,-0.97444,-0.054358,0.024781,-0.014389,115311
2025-02-26 00:41:14.294137,sleep,9.837775,1.079785,-0.957681,-0.055424,0.024515,-0.014922,115392
2025-02-26 00:41:14.294137,sleep,9.82341,1.070208,-0.955287,-0.055691,0.025314,-0.013057,115446
2025-02-26 00:41:14.294137,sleep,9.847352,1.06542,-0.92895,-0.055691,0.022916,-0.014123,115498
2025-02-26 00:41:14.294137,sleep,9.811439,1.060631,-0.962469,-0.055691,0.022916,-0.014922,115463
2025-02-26 00:41:14.294137,sleep,9.849746,1.077391,-0.964863,-0.054891,0.022649,-0.014655,115457
2025-02-26 00:41:14.294137,sleep,9.837775,1.089362,-0.955287,-0.055957,0.023449,-0.014655,115453
2025-02-26 00:41:14.294137,sleep,9.854534,1.072602,-0.955287,-0.055957,0.022916,-0.014655,115445
2025-02-26 00:41:14.294137,sleep,9.837775,1.058237,-0.940921,-0.055158,0.023449,-0.014123,115488
2025-02-26 00:41:14.294137,sleep,9.821015,1.079785,-0.948104,-0.055957,0.022116,-0.014922,115565
2025-02-26 00:41:14.294137,sleep,9.861717,1.084573,-0.940921,-0.054625,0.023449,-0.014655,115599
2025-02-26 00:41:14.294137,sleep,9.847352,1.070208,-0.933739,-0.055424,0.022116,-0.014655,115563
2025-02-26 00:41:14.294137,sleep,9.847352,1.067814,-0.97444,-0.055424,0.023182,-0.013856,115574
2025-02-26 00:41:14.294137,sleep,9.842564,1.053449,-0.948104,-0.055424,0.024248,-0.015188,115590
2025-02-26 00:41:14.294137,sleep,9.844957,1.079785,-0.943315,-0.055158,0.024248,-0.014389,115601
2025-02-26 00:41:14.294137,sleep,9.832987,1.06542,-0.960075,-0.056224,0.023182,-0.014922,115576
2025-02-26 00:41:14.294137,sleep,9.859323,1.060631,-0.957681,-0.055424,0.022916,-0.013057,115608
2025-02-26 00:41:14.294137,sleep,9.85214,1.077391,-0.940921,-0.054891,0.021051,-0.014123,115598
2025-02-26 00:41:14.294137,sleep,9.825804,1.067814,-0.962469,-0.055158,0.023449,-0.013856,115601
2025-02-26 00:41:14.294137,sleep,9.849746,1.070208,-0.938527,-0.055957,0.025314,-0.014389,115772
2025-02-26 00:41:14.294137,sleep,9.868899,1.077391,-0.952892,-0.054891,0.02185,-0.014389,115776
2025-02-26 00:41:14.294137,sleep,9.849746,1.082179,-0.981623,-0.055158,0.020251,-0.015455,115598
2025-02-26 00:41:14.294137,sleep,9.832987,1.077391,-0.962469,-0.055957,0.023715,-0.014655,115038
2025-02-26 00:41:14.294137,sleep,9.835381,1.070208,-0.97444,-0.055424,0.023449,-0.015188,114399
2025-02-26 00:41:14.294137,sleep,9.842564,1.077391,-0.962469,-0.056224,0.023449,-0.015188,113887
2025-02-26 00:41:14.294137,sleep,9.832987,1.098939,-0.94571,-0.05649,0.023715,-0.015988,113610
2025-02-26 00:41:14.294137,sleep,9.835381,1.077391,-0.943315,-0.054891,0.022383,-0.015721,113488
2025-02-26 00:41:14.294137,sleep,9.835381,1.084573,-0.943315,-0.055424,0.023715,-0.014123,113427
2025-02-26 00:41:14.294137,sleep,9.856929,1.070208,-0.964863,-0.055691,0.023449,-0.014123,113477
2025-02-26 00:41:14.294137,sleep,9.85214,1.077391,-0.955287,-0.054891,0.022383,-0.014655,113507
2025-02-26 00:41:14.294137,sleep,9.835381,1.082179,-0.948104,-0.054891,0.023449,-0.015455,113624
2025-02-26 00:41:14.294137,sleep,9.844957,1.084573,-0.938527,-0.055158,0.023182,-0.014922,113761
2025-02-26 00:41:14.294137,sleep,9.847352,1.06542,-0.969652,-0.055424,0.023715,-0.015188,113892
2025-02-26 00:41:14.294137,sleep,9.847352,1.079785,-0.94571,-0.055957,0.025847,-0.01359,114030
2025-02-26 00:41:14.294137,sleep,9.847352,1.09415,-0.94571,-0.054891,0.021317,-0.015188,114060
2025-02-26 00:41:14.294137,sleep,9.82341,1.084573,-0.964863,-0.056224,0.025314,-0.013856,114120
2025-02-26 00:41:14.294137,sleep,9.842564,1.086968,-0.948104,-0.055424,0.023982,-0.01359,114204
2025-02-26 00:41:14.294137,sleep,9.835381,1.063026,-0.940921,-0.055158,0.022649,-0.014655,114365
2025-02-26 00:41:14.294137,sleep,9.844957,1.079785,-0.926556,-0.055424,0.022383,-0.015721,114457
2025-02-26 00:41:14.294137,sleep,9.832987,1.058237,-0.957681,-0.054358,0.021583,-0.014922,114457
2025-02-26 00:41:14.294137,sleep,9.828198,1.091756,-0.926556,-0.054358,0.02185,-0.013856,114522
2025-02-26 00:41:14.294137,sleep,9.866506,1.082179,-0.938527,-0.055424,0.023449,-0.014655,114466
2025-02-26 00:41:14.294137,sleep,9.844957,1.077391,-0.967257,-0.055158,0.023449,-0.014123,114441
2025-02-26 00:41:14.294137,sleep,9.821015,1.070208,-0.94571,-0.054891,0.024515,-0.014123,114425
2025-02-26 00:41:14.294137,sleep,9.835381,1.06542,-0.976834,-0.055424,0.023715,-0.014655,114427
2025-02-26 00:41:14.294137,sleep,9.837775,1.067814,-0.957681,-0.055691,0.024248,-0.014922,114466
2025-02-26 00:41:14.294137,sleep,9.832987,1.077391,-0.943315,-0.056224,0.023982,-0.015188,114440
2025-02-26 00:41:14.294137,sleep,9.818622,1.072602,-0.933739,-0.055158,0.022916,-0.014922,114489
2025-02-26 00:41:14.294137,sleep,9.842564,1.072602,-0.943315,-0.055158,0.022116,-0.014922,114476
2025-02-26 00:41:14.294137,sleep,9.868899,1.072602,-0.924162,-0.054891,0.022116,-0.014922,114665
2025-02-26 00:41:14.294137,sleep,9.832987,1.077391,-0.981623,-0.054358,0.022116,-0.014922,114733
2025-02-26 00:41:14.294137,sleep,9.837775,1.074997,-0.969652,-0.055424,0.023715,-0.015188,114767
2025-02-26 00:41:14.294137,sleep,9.842564,1.063026,-0.955287,-0.055957,0.023182,-0.013856,114791
2025-02-26 00:41:14.294137,sleep,9.859323,1.058237,-0.943315,-0.055691,0.022916,-0.014655,114809
2025-02-26 00:41:14.294137,sleep,9.844957,1.063026,-0.972046,-0.055691,0.023715,-0.014922,114834
2025-02-26 00:41:14.294137,sleep,9.830592,1.060631,-0.94571,-0.055424,0.022383,-0.014389,114921
2025-02-26 00:41:14.294137,sleep,9.828198,1.089362,-0.943315,-0.054891,0.022649,-0.014922,114994
2025-02-26 00:41:14.294137,sleep,9.85214,1.082179,-0.962469,-0.054891,0.022383,-0.014922,115088
2025-02-26 00:41:14.294137,sleep,9.864111,1.06542,-0.957681,-0.055691,0.023715,-0.014655,115137
2025-02-26 00:41:14.294137,sleep,9.832987,1.063026,-0.962469,-0.054625,0.022116,-0.015455,115119
2025-02-26 00:41:14.294137,sleep,9.832987,1.072602,-0.960075,-0.055957,0.023449,-0.014123,115152
2025-02-26 00:41:14.294137,sleep,9.818622,1.067814,-0.943315,-0.055424,0.022649,-0.014123,115180
2025-02-26 00:41:14.294137,sleep,9.842564,1.082179,-0.94571,-0.055158,0.024515,-0.014123,115188
2025-02-26 00:41:14.294137,sleep,9.847352,1.06542,-0.97444,-0.055158,0.022916,-0.014389,115224
2025-02-26 00:41:14.294137,sleep,9.840169,1.079785,-0.948104,-0.055158,0.021317,-0.015188,115233
2025-02-26 00:41:14.294137,sleep,9.842564,1.077391,-0.931344,-0.056224,0.023449,-0.013856,115269
2025-02-26 00:41:14.294137,sleep,9.837775,1.053449,-0.960075,-0.055957,0.023182,-0.014389,115311
2025-02-26 00:41:14.294137,sleep,9.837775,1.079785,-0.964863,-0.056224,0.022116,-0.014922,115365
2025-02-26 00:41:14.294137,sleep,9.849746,1.082179,-0.976834,-0.054891,0.023449,-0.015455,115359
2025-02-26 00:41:14.294137,sleep,9.828198,1.070208,-0.962469,-0.054891,0.023449,-0.014389,115269
2025-02-26 00:41:14.294137,sleep,9.849746,1.084573,-0.955287,-0.054358,0.023982,-0.014123,115389
2025-02-26 00:41:14.294137,sleep,9.832987,1.077391,-0.940921,-0.055424,0.02185,-0.015188,115389
2025-02-26 00:41:14.294137,sleep,9.830592,1.082179,-0.921768,-0.055158,0.022649,-0.014922,115449
2025-02-26 00:41:14.294137,sleep,9.854534,1.070208,-0.943315,-0.055691,0.022383,-0.014922,115457
2025-02-26 00:41:14.294137,sleep,9.864111,1.067814,-0.931344,-0.055158,0.023182,-0.014389,115485
2025-02-26 00:41:14.294137,sleep,9.847352,1.074997,-0.976834,-0.054625,0.023982,-0.014655,115444
2025-02-26 00:41:14.294137,sleep,9.847352,1.084573,-0.976834,-0.055424,0.022383,-0.01359,115416
2025-02-26 00:41:14.294137,sleep,9.821015,1.077391,-0.950498,-0.054625,0.022649,-0.014389,115382
2025-02-26 00:41:14.294137,sleep,9.835381,1.089362,-0.969652,-0.055424,0.023182,-0.015721,115349
2025-02-26 00:41:14.294137,sleep,9.830592,1.086968,-0.933739,-0.05649,0.023182,-0.015188,115355
2025-02-26 00:41:14.294137,sleep,9.840169,1.082179,-0.933739,-0.054891,0.023182,-0.014389,115402
2025-02-26 00:41:14.294137,sleep,9.840169,1.072602,-0.943315,-0.054625,0.024515,-0.014389,115441
2025-02-26 00:41:14.294137,sleep,9.85214,1.077391,-0.926556,-0.054891,0.022649,-0.014389,115450
2025-02-26 00:41:14.294137,sleep,9.837775,1.067814,-0.952892,-0.055424,0.020518,-0.015188,115301
2025-02-26 00:41:14.294137,sleep,9.830592,1.089362,-0.969652,-0.055424,0.02185,-0.015988,114955
2025-02-26 00:41:14.294137,sleep,9.832987,1.082179,-0.976834,-0.05649,0.025047,-0.015188,114418
2025-02-26 00:41:14.294137,sleep,9.821015,1.077391,-0.967257,-0.05649,0.023182,-0.014389,113797
2025-02-26 00:41:14.294137,sleep,9.830592,1.091756,-0.931344,-0.05649,0.022649,-0.015188,113339
2025-02-26 00:41:14.294137,sleep,9.837775,1.079785,-0.967257,-0.055691,0.022649,-0.014922,113078
2025-02-26 00:41:14.294137,sleep,9.830592,1.079785,-0.972046,-0.055424,0.021317,-0.014389,113055
2025-02-26 00:41:14.294137,sleep,9.842564,1.074997,-0.936133,-0.055158,0.022649,-0.014922,113136
2025-02-26 00:41:14.294137,sleep,9.830592,1.082179,-0.952892,-0.055424,0.02185,-0.014922,113302
2025-02-26 00:41:14.294137,sleep,9.842564,1.074997,-0.933739,-0.055158,0.022383,-0.015721,113457
2025-02-26 00:41:14.294137,sleep,9.828198,1.082179,-0.921768,-0.054891,0.023715,-0.01359,113612
2025-02-26 00:41:14.294137,sleep,9.825804,1.079785,-0.94571,-0.054625,0.024248,-0.01359,113721
2025-02-26 00:41:14.294137,sleep,9.842564,1.079785,-0.979228,-0.054625,0.023982,-0.01359,113864
2025-02-26 00:41:14.294137,sleep,9.832987,1.077391,-0.926556,-0.055424,0.023182,-0.014123,114044
2025-02-26 00:41:14.294137,sleep,9.85214,1.079785,-0.936133,-0.055957,0.023715,-0.014389,114169
2025-02-26 00:41:14.294137,sleep,9.85214,1.077391,-0.967257,-0.05649,0.02558,-0.01359,114282
2025-02-26 00:41:14.294137,sleep,9.821015,1.058237,-0.948104,-0.055957,0.023982,-0.01359,114422
2025-02-26 00:41:14.294137,sleep,9.842564,1.067814,-0.960075,-0.054625,0.02185,-0.015188,114455
2025-02-26 00:41:14.294137,sleep,9.840169,1.074997,-0.938527,-0.055424,0.021317,-0.015188,114522
2025-02-26 00:41:14.294137,sleep,9.840169,1.067814,-0.976834,-0.055158,0.022383,-0.014389,114486
2025-02-26 00:41:14.294137,sleep,9.832987,1.055843,-0.984017,-0.05649,0.022383,-0.014123,114465
2025-02-26 00:41:14.294137,sleep,9.821015,1.063026,-0.972046,-0.055158,0.024781,-0.014655,114461
2025-02-26 00:41:14.294137,sleep,9.828198,1.091756,-0.981623,-0.055691,0.024515,-0.014655,114434
2025-02-26 00:41:14.294137,sleep,9.837775,1.06542,-0.97444,-0.055424,0.024248,-0.014123,114338
2025-02-26 00:41:14.294137,sleep,9.844957,1.084573,-0.97444,-0.056224,0.022916,-0.014922,114306
2025-02-26 00:41:14.294137,sleep,9.840169,1.091756,-0.955287,-0.055158,0.023449,-0.01359,114307
2025-02-26 00:41:14.294137,sleep,9.832987,1.079785,-0.962469,-0.054891,0.023182,-0.013856,114430
2025-02-26 00:41:14.294137,sleep,9.847352,1.074997,-0.94571,-0.054891,0.02185,-0.015455,114376
2025-02-26 00:41:14.294137,sleep,9.849746,1.072602,-0.952892,-0.054625,0.022916,-0.014922,114393
2025-02-26 00:41:14.294137,sleep,9.828198,1.067814,-0.969652,-0.055424,0.022649,-0.014123,114477
2025-02-26 00:41:14.294137,sleep,9.837775,1.072602,-0.921768,-0.055158,0.022916,-0.014389,114366
2025-02-26 00:41:14.294137,sleep,9.825804,1.082179,-0.955287,-0.055424,0.024248,-0.013057,114656
2025-02-26 00:41:14.294137,sleep,9.847352,1.070208,-0.969652,-0.055424,0.023182,-0.014123,114684
2025-02-26 00:41:14.294137,sleep,9.828198,1.072602,-0.957681,-0.055691,0.023715,-0.014389,114477
2025-02-26 00:41:14.294137,sleep,9.835381,1.082179,-0.948104,-0.055691,0.024515,-0.015188,114858
2025-02-26 00:41:14.294137,sleep,9.844957,1.074997,-0.962469,-0.055424,0.023982,-0.014123,114883
2025-02-26 00:41:14.294137,sleep,9.818622,1.077391,-0.952892,-0.055424,0.022916,-0.014655,114987
2025-02-26 00:41:14.294137,sleep,9.854534,1.070208,-0.940921,-0.055424,0.022649,-0.014655,115095
2025-02-26 00:41:14.294137,sleep,9.85214,1.070208,-0.933739,-0.05649,0.022116,-0.014655,115169
2025-02-26 00:41:14.294137,sleep,9.840169,1.09415,-0.967257,-0.056224,0.023182,-0.014389,115200
2025-02-26 00:41:14.294137,sleep,9.828198,1.086968,-0.938527,-0.054891,0.023449,-0.014389,115205
2025-02-26 00:41:14.294137,sleep,9.842564,1.074997,-0.952892,-0.054891,0.023182,-0.014922,115241
2025-02-26 00:41:14.294137,sleep,9.837775,1.091756,-0.938527,-0.055424,0.022916,-0.014389,115215
2025-02-26 00:41:14.294137,sleep,9.835381,1.070208,-0.97444,-0.055158,0.023182,-0.013856,115262
2025-02-26 00:41:14.294137,sleep,9.861717,1.09415,-0.967257,-0.055158,0.023982,-0.014655,115316
2025-02-26 00:41:14.294137,sleep,9.842564,1.096544,-0.94571,-0.055691,0.022383,-0.015455,115387
2025-02-26 00:41:14.294137,sleep,9.82341,1.046266,-0.94571,-0.054625,0.022116,-0.014123,115355
2025-02-26 00:41:14.294137,sleep,9.847352,1.06542,-0.967257,-0.055957,0.022916,-0.015721,115371
2025-02-26 00:41:14.294137,sleep,9.844957,1.063026,-0.976834,-0.055158,0.023182,-0.014655,115370
2025-02-26 00:41:14.294137,sleep,9.832987,1.079785,-0.960075,-0.055424,0.02185,-0.013856,115359
2025-02-26 00:41:14.294137,sleep,9.849746,1.086968,-0.955287,-0.055424,0.022383,-0.014655,115353
2025-02-26 00:41:14.294137,sleep,9.85214,1.06542,-0.940921,-0.055158,0.023182,-0.014389,115346
2025-02-26 00:41:14.294137,sleep,9.837775,1.063026,-0.950498,-0.055158,0.023715,-0.014655,115311
2025-02-26 00:41:14.294137,sleep,9.830592,1.067814,-0.948104,-0.054625,0.022116,-0.015188,115379
2025-02-26 00:41:14.294137,sleep,9.835381,1.077391,-0.957681,-0.055158,0.022649,-0.014123,115438
2025-02-26 00:41:14.294137,sleep,9.82341,1.082179,-0.957681,-0.055158,0.023449,-0.014655,115518
2025-02-26 00:41:14.294137,sleep,9.840169,1.06542,-0.950498,-0.055158,0.023182,-0.014922,115532
2025-02-26 00:41:14.294137,sleep,9.840169,1.072602,-0.940921,-0.054625,0.023449,-0.013856,115580
2025-02-26 00:41:14.294137,sleep,9.825804,1.098939,-0.950498,-0.055424,0.022383,-0.015188,115544
2025-02-26 00:41:14.294137,sleep,9.842564,1.072602,-0.960075,-0.054891,0.024515,-0.015721,115626
2025-02-26 00:41:14.294137,sleep,9.840169,1.077391,-0.943315,-0.055158,0.022383,-0.014655,115690
2025-02-26 00:41:14.294137,sleep,9.844957,1.067814,-0.957681,-0.055158,0.022383,-0.015188,115732
2025-02-26 00:41:14.294137,sleep,9.837775,1.074997,-0.943315,-0.055424,0.02185,-0.014389,115709
2025-02-26 00:41:14.294137,sleep,9.830592,1.067814,-0.967257,-0.055957,0.024248,-0.015188,115669
2025-02-26 00:41:14.294137,sleep,9.828198,1.06542,-0.955287,-0.054891,0.023182,-0.014655,115640
2025-02-26 00:41:14.294137,sleep,9.856929,1.067814,-0.962469,-0.055158,0.020784,-0.015721,115487
2025-02-26 00:41:14.294137,sleep,9.832987,1.079785,-0.967257,-0.054625,0.020784,-0.014655,115138
2025-02-26 00:41:14.294137,sleep,9.830592,1.084573,-0.976834,-0.055424,0.022116,-0.015988,114583
2025-02-26 00:41:14.294137,sleep,9.842564,1.077391,-0.950498,-0.05649,0.023182,-0.014922,113964
2025-02-26 00:41:14.294137,sleep,9.849746,1.091756,-0.938527,-0.055957,0.023449,-0.014655,113497
2025-02-26 00:41:14.294137,sleep,9.825804,1.084573,-0.950498,-0.055158,0.022383,-0.014123,113171
2025-02-26 00:41:14.294137,sleep,9.844957,1.086968,-0.948104,-0.055158,0.022116,-0.015188,113073
2025-02-26 00:41:14.294137,sleep,9.849746,1.079785,-0.955287,-0.055957,0.02185,-0.014922,113091
2025-02-26 00:41:14.294137,sleep,9.840169,1.070208,-0.962469,-0.055424,0.021583,-0.014655,113140
2025-02-26 00:41:14.294137,sleep,9.832987,1.091756,-0.955287,-0.054092,0.021317,-0.015188,113265
2025-02-26 00:41:14.294137,sleep,9.847352,1.070208,-0.940921,-0.054092,0.020251,-0.016254,113393
2025-02-26 00:41:14.294137,sleep,9.813833,1.082179,-0.948104,-0.055158,0.022916,-0.015188,113513
2025-02-26 00:41:14.294137,sleep,9.821015,1.089362,-0.950498,-0.055158,0.023982,-0.013057,113659
2025-02-26 00:41:14.294137,sleep,9.840169,1.079785,-0.955287,-0.054891,0.025047,-0.013323,113769
2025-02-26 00:41:14.294137,sleep,9.835381,1.079785,-0.957681,-0.055691,0.022383,-0.014123,113393
2025-02-26 00:41:14.294137,sleep,9.835381,1.070208,-0.960075,-0.056757,0.02558,-0.013057,113907
2025-02-26 00:41:14.294137,sleep,9.832987,1.079785,-0.964863,-0.055158,0.023982,-0.014389,114055
2025-02-26 00:41:14.294137,sleep,9.859323,1.077391,-0.97444,-0.055691,0.022649,-0.014655,114241
2025-02-26 00:41:14.294137,sleep,9.840169,1.067814,-0.938527,-0.053559,0.022116,-0.014123,114294
2025-02-26 00:41:14.294137,sleep,9.849746,1.086968,-0.938527,-0.054092,0.020784,-0.014123,114423
2025-02-26 00:41:14.294137,sleep,9.842564,1.06542,-0.950498,-0.054891,0.021051,-0.014922,114367
2025-02-26 00:41:14.294137,sleep,9.828198,1.077391,-0.955287,-0.055691,0.022916,-0.014389,114280
2025-02-26 00:41:14.294137,sleep,9.847352,1.070208,-0.972046,-0.055691,0.025047,-0.014123,114219
2025-02-26 00:41:14.294137,sleep,9.828198,1.063026,-0.964863,-0.054358,0.024248,-0.013856,114154
2025-02-26 00:41:14.294137,sleep,9.844957,1.084573,-0.967257,-0.054891,0.023182,-0.013856,114175
2025-02-26 00:41:14.294137,sleep,9.840169,1.077391,-0.940921,-0.054891,0.022916,-0.014655,114238
2025-02-26 00:41:14.294137,sleep,9.828198,1.074997,-0.955287,-0.055691,0.022649,-0.015188,114199
2025-02-26 00:41:14.294137,sleep,9.842564,1.072602,-0.967257,-0.054891,0.02185,-0.015188,114215
2025-02-26 00:41:14.294137,sleep,9.849746,1.091756,-0.952892,-0.055957,0.020784,-0.014389,114234
2025-02-26 00:41:14.294137,sleep,9.840169,1.079785,-0.936133,-0.055158,0.022383,-0.014389,114279
2025-02-26 00:41:14.294137,sleep,9.837775,1.084573,-0.969652,-0.054891,0.023182,-0.014922,114334
2025-02-26 00:41:14.294137,sleep,9.849746,1.077391,-0.972046,-0.056224,0.023982,-0.015188,114336
2025-02-26 00:41:14.294137,sleep,9.832987,1.079785,-0.94571,-0.055424,0.022116,-0.014655,114386
2025-02-26 00:41:14.294137,sleep,9.828198,1.086968,-0.967257,-0.055957,0.022383,-0.014389,114475
2025-02-26 00:41:14.294137,sleep,9.849746,1.084573,-0.969652,-0.055691,0.022649,-0.014123,114765
2025-02-26 00:41:14.294137,sleep,9.837775,1.079785,-0.943315,-0.054891,0.022383,-0.013856,114671
2025-02-26 00:41:14.294137,sleep,9.840169,1.055843,-0.943315,-0.055158,0.023715,-0.013323,114707
2025-02-26 00:41:14.294137,sleep,9.837775,1.055843,-0.938527,-0.055424,0.023449,-0.014922,114720
2025-02-26 00:41:14.294137,sleep,9.828198,1.074997,-0.960075,-0.054891,0.023449,-0.014123,114785
2025-02-26 00:41:14.294137,sleep,9.849746,1.070208,-0.981623,-0.055158,0.022383,-0.014389,114798
2025-02-26 00:41:14.294137,sleep,9.832987,1.074997,-0.950498,-0.055158,0.023715,-0.015455,114824
2025-02-26 00:41:14.294137,sleep,9.849746,1.077391,-0.948104,-0.055691,0.023182,-0.014123,114860
2025-02-26 00:41:14.294137,sleep,9.844957,1.082179,-0.964863,-0.055158,0.023449,-0.014922,114901
2025-02-26 00:41:14.294137,sleep,9.847352,1.082179,-0.972046,-0.054891,0.022383,-0.014922,114798
2025-02-26 00:41:14.294137,sleep,9.82341,1.074997,-0.948104,-0.055957,0.023449,-0.014655,115055
2025-02-26 00:41:14.294137,sleep,9.840169,1.074997,-0.924162,-0.054358,0.022916,-0.014389,115106
2025-02-26 00:41:14.294137,sleep,9.849746,1.082179,-0.967257,-0.055158,0.022916,-0.014389,115145
2025-02-26 00:41:14.294137,sleep,9.859323,1.058237,-0.92895,-0.054891,0.022116,-0.014655,115141
2025-02-26 00:41:14.294137,sleep,9.847352,1.074997,-0.960075,-0.055424,0.023449,-0.014389,115160
2025-02-26 00:41:14.294137,sleep,9.844957,1.082179,-0.969652,-0.055158,0.023715,-0.014922,115306
2025-02-26 00:41:14.294137,sleep,9.837775,1.079785,-0.976834,-0.055691,0.022916,-0.014389,115305
2025-02-26 00:41:14.294137,sleep,9.847352,1.079785,-0.964863,-0.055424,0.022649,-0.014655,115322
2025-02-26 00:41:14.294137,sleep,9.842564,1.070208,-0.957681,-0.056224,0.022649,-0.014123,115280
2025-02-26 00:41:14.294137,sleep,9.832987,1.074997,-0.972046,-0.055424,0.023182,-0.014655,115251
2025-02-26 00:41:14.294137,sleep,9.840169,1.067814,-0.960075,-0.055158,0.022649,-0.014389,115237
2025-02-26 00:41:14.294137,sleep,9.837775,1.06542,-0.92895,-0.055158,0.022116,-0.014655,115281
2025-02-26 00:41:14.294137,sleep,9.840169,1.079785,-0.938527,-0.054625,0.023715,-0.014123,115339
2025-02-26 00:41:14.294137,sleep,9.840169,1.063026,-0.960075,-0.055158,0.02185,-0.014655,115375
2025-02-26 00:41:14.294137,sleep,9.840169,1.06542,-0.957681,-0.055158,0.022649,-0.014389,115366
2025-02-26 00:41:14.294137,sleep,9.837775,1.070208,-0.952892,-0.055691,0.024781,-0.013856,115370
2025-02-26 00:41:14.294137,sleep,9.840169,1.082179,-0.948104,-0.055691,0.024515,-0.014123,115374
2025-02-26 00:41:14.294137,sleep,9.861717,1.082179,-0.950498,-0.055691,0.022916,-0.015188,115401
2025-02-26 00:41:14.294137,sleep,9.830592,1.077391,-0.94571,-0.056224,0.023982,-0.015455,115362
2025-02-26 00:41:14.294137,sleep,9.832987,1.079785,-0.948104,-0.055957,0.022116,-0.015455,115376
2025-02-26 00:41:14.294137,sleep,9.828198,1.084573,-0.950498,-0.056224,0.023982,-0.013856,115406
2025-02-26 00:41:14.294137,sleep,9.82341,1.086968,-0.938527,-0.05649,0.02558,-0.014389,115401
2025-02-26 00:41:14.294137,sleep,9.859323,1.082179,-0.92895,-0.055158,0.022383,-0.014922,115500
2025-02-26 00:41:14.294137,sleep,9.856929,1.077391,-0.984017,-0.054625,0.019985,-0.015721,115332
2025-02-26 00:41:14.294137,sleep,9.830592,1.070208,-0.960075,-0.055158,0.022916,-0.015721,115406
2025-02-26 00:41:14.294137,sleep,9.842564,1.06542,-0.962469,-0.057023,0.024781,-0.014922,114264
2025-02-26 00:41:14.294137,sleep,9.840169,1.06542,-0.94571,-0.05649,0.024515,-0.014655,113689
2025-02-26 00:41:14.294137,sleep,9.816227,1.089362,-0.943315,-0.055424,0.024248,-0.015188,113404
2025-02-26 00:41:14.294137,sleep,9.835381,1.06542,-0.976834,-0.054625,0.023449,-0.014922,113278
2025-02-26 00:41:14.294137,sleep,9.849746,1.072602,-0.964863,-0.055158,0.024248,-0.014389,113257
2025-02-26 00:41:14.294137,sleep,9.837775,1.077391,-0.950498,-0.055158,0.023449,-0.014123,113315
2025-02-26 00:41:14.294137,sleep,9.842564,1.098939,-0.97444,-0.054891,0.021583,-0.014922,113367
2025-02-26 00:41:14.294137,sleep,9.825804,1.063026,-0.97444,-0.054625,0.022916,-0.014123,113469
2025-02-26 00:41:14.294137,sleep,9.832987,1.086968,-0.97444,-0.055424,0.022916,-0.014389,113575
2025-02-26 00:41:14.294137,sleep,9.85214,1.089362,-0.969652,-0.055691,0.024248,-0.015188,113716
2025-02-26 00:41:14.294137,sleep,9.832987,1.082179,-0.964863,-0.055691,0.025314,-0.014389,113855
2025-02-26 00:41:14.294137,sleep,9.847352,1.103727,-0.94571,-0.055424,0.023715,-0.014655,113958
2025-02-26 00:41:14.294137,sleep,9.830592,1.072602,-0.955287,-0.055957,0.025314,-0.013323,113962
2025-02-26 00:41:14.294137,sleep,9.85214,1.079785,-0.926556,-0.057289,0.026646,-0.01359,114073
2025-02-26 00:41:14.294137,sleep,9.82341,1.079785,-0.914585,-0.055158,0.025047,-0.013057,114204
2025-02-26 00:41:14.294137,sleep,9.847352,1.060631,-0.943315,-0.055691,0.022916,-0.014389,114320
2025-02-26 00:41:14.294137,sleep,9.854534,1.082179,-0.950498,-0.055158,0.022116,-0.014389,114373
2025-02-26 00:41:14.294137,sleep,9.856929,1.053449,-0.964863,-0.055158,0.022649,-0.014655,114384
2025-02-26 00:41:14.294137,sleep,9.832987,1.06542,-0.991199,-0.055424,0.023449,-0.015455,114375
2025-02-26 00:41:14.294137,sleep,9.828198,1.082179,-0.952892,-0.055957,0.025314,-0.014123,114320
2025-02-26 00:41:14.294137,sleep,9.828198,1.077391,-0.940921,-0.055957,0.025314,-0.014389,114341
2025-02-26 00:41:14.294137,sleep,9.82341,1.067814,-0.940921,-0.055158,0.024515,-0.014655,114369
2025-02-26 00:41:14.294137,sleep,9.840169,1.06542,-0.936133,-0.054891,0.023982,-0.014655,114371
2025-02-26 00:41:14.294137,sleep,9.82341,1.082179,-0.964863,-0.055691,0.022916,-0.013057,114412
2025-02-26 00:41:14.294137,sleep,9.818622,1.070208,-0.981623,-0.055691,0.022383,-0.014922,114421
2025-02-26 00:41:14.294137,sleep,9.849746,1.089362,-0.933739,-0.054891,0.023449,-0.014389,114495
2025-02-26 00:41:14.294137,sleep,9.844957,1.084573,-0.972046,-0.054625,0.022116,-0.014123,114615
2025-02-26 00:41:14.294137,sleep,9.835381,1.079785,-0.933739,-0.054891,0.02185,-0.014389,114687
2025-02-26 00:41:14.294137,sleep,9.847352,1.074997,-0.936133,-0.055957,0.024781,-0.014389,114709
2025-02-26 00:41:14.294137,sleep,9.830592,1.067814,-0.952892,-0.055158,0.023982,-0.014123,114743
2025-02-26 00:41:14.294137,sleep,9.844957,1.070208,-0.933739,-0.055158,0.022649,-0.01359,114760
2025-02-26 00:41:14.294137,sleep,9.840169,1.077391,-0.962469,-0.055158,0.024248,-0.014655,114841
2025-02-26 00:41:14.294137,sleep,9.85214,1.077391,-0.950498,-0.055424,0.023449,-0.013323,114881
2025-02-26 00:41:14.294137,sleep,9.832987,1.082179,-0.97444,-0.054891,0.023982,-0.014655,114991
2025-02-26 00:41:14.294137,sleep,9.844957,1.077391,-0.955287,-0.054092,0.023182,-0.015455,115046
2025-02-26 00:41:14.294137,sleep,9.861717,1.072602,-0.984017,-0.055957,0.023449,-0.015188,115040
2025-02-26 00:41:14.294137,sleep,9.837775,1.072602,-0.94571,-0.055691,0.022916,-0.013856,115066
2025-02-26 00:41:14.294137,sleep,9.856929,1.074997,-0.964863,-0.054891,0.024248,-0.013856,115113
2025-02-26 00:41:14.294137,sleep,9.842564,1.072602,-0.950498,-0.054891,0.023715,-0.014389,115135
2025-02-26 00:41:14.294137,sleep,9.830592,1.072602,-0.94571,-0.054891,0.022916,-0.013856,115116
2025-02-26 00:41:14.294137,sleep,9.849746,1.074997,-0.988805,-0.054358,0.023715,-0.014389,115171
2025-02-26 00:41:14.294137,sleep,9.842564,1.077391,-0.979228,-0.055424,0.023715,-0.014389,115207
2025-02-26 00:41:14.294137,sleep,9.847352,1.067814,-0.948104,-0.054891,0.023715,-0.014655,115277
2025-02-26 00:41:14.294137,sleep,9.849746,1.06542,-0.955287,-0.055424,0.023715,-0.014655,115331
2025-02-26 00:41:14.294137,sleep,9.842564,1.086968,-0.92895,-0.056224,0.023982,-0.014655,115353
2025-02-26 00:41:14.294137,sleep,9.844957,1.077391,-0.950498,-0.055957,0.023182,-0.014389,115405
2025-02-26 00:41:14.294137,sleep,9.842564,1.077391,-0.919373,-0.055691,0.025047,-0.014123,115411
2025-02-26 00:41:14.294137,sleep,9.830592,1.072602,-0.952892,-0.055691,0.022649,-0.014123,115444
2025-02-26 00:41:14.294137,sleep,9.859323,1.079785,-0.972046,-0.056224,0.023449,-0.014655,115498
2025-02-26 00:41:14.294137,sleep,9.794679,1.074997,-0.962469,-0.055424,0.023715,-0.014922,115499
2025-02-26 00:41:14.294137,sleep,9.849746,1.089362,-0.967257,-0.055158,0.022649,-0.014922,115534
2025-02-26 00:41:14.294137,sleep,9.832987,1.086968,-0.924162,-0.055957,0.023449,-0.013323,115543
2025-02-26 00:41:14.294137,sleep,9.842564,1.060631,-0.972046,-0.055957,0.024781,-0.014655,115447
2025-02-26 00:41:14.294137,sleep,9.844957,1.067814,-0.936133,-0.056224,0.024515,-0.014123,115449
2025-02-26 00:41:14.294137,sleep,9.849746,1.079785,-0.962469,-0.055424,0.02185,-0.014922,115448
2025-02-26 00:41:14.294137,sleep,9.82341,1.070208,-0.936133,-0.055158,0.023449,-0.015988,115444
2025-02-26 00:41:14.294137,sleep,9.835381,1.084573,-0.964863,-0.054891,0.022649,-0.015988,115502
2025-02-26 00:41:14.294137,sleep,9.825804,1.084573,-0.955287,-0.054891,0.023982,-0.014655,115457
2025-02-26 00:41:14.294137,sleep,9.821015,1.063026,-0.948104,-0.055957,0.023449,-0.014389,115437
2025-02-26 00:41:14.294137,sleep,9.840169,1.079785,-0.940921,-0.054891,0.021317,-0.015455,115387
2025-02-26 00:41:14.294137,sleep,9.840169,1.067814,-0.957681,-0.055691,0.02185,-0.015988,115114
2025-02-26 00:41:14.294137,sleep,9.847352,1.067814,-0.976834,-0.055691,0.024248,-0.015188,114599
2025-02-26 00:41:14.294137,sleep,9.828198,1.074997,-0.981623,-0.056757,0.023715,-0.014655,114010
2025-02-26 00:41:14.294137,sleep,9.840169,1.074997,-0.952892,-0.055424,0.02185,-0.014922,113510
2025-02-26 00:41:14.294137,sleep,9.859323,1.063026,-0.948104,-0.054891,0.021583,-0.015721,115114
