Timestamp,Label,AccelX,AccelY,AccelZ,GyroX,GyroY,GyroZ,IR
2025-02-26 01:44:16.263368,sleep,9.878476,1.752556,0.023942,-0.037305,-0.078606,-0.002665,74422
2025-02-26 01:44:16.263368,sleep,9.856929,1.719037,-0.124498,-0.030643,-0.152417,0.001865,74496
2025-02-26 01:44:16.263368,sleep,9.842564,1.699883,-0.251391,-0.026113,-0.158812,0.001332,74288
2025-02-26 01:44:16.263368,sleep,9.837775,1.692701,-0.251391,-0.021317,-0.140159,0.002665,73682
2025-02-26 01:44:16.263368,sleep,9.816227,1.723825,-0.371101,-0.019452,-0.126836,0.004263,73212
2025-02-26 01:44:16.263368,sleep,9.856929,1.678335,-0.47884,-0.03091,-0.07834,-0.001066,72881
2025-02-26 01:44:16.263368,sleep,9.873688,1.685518,-0.459687,-0.046897,-0.018919,-0.010126,72488
2025-02-26 01:44:16.263368,sleep,9.849746,1.697489,-0.339977,-0.056224,-0.00373,-0.014123,72112
2025-02-26 01:44:16.263368,sleep,9.837775,1.711854,-0.320823,-0.053825,-0.032242,-0.007194,72709
2025-02-26 01:44:16.263368,sleep,9.830592,1.704672,-0.371101,-0.051161,-0.002132,-0.005862,73053
2025-02-26 01:44:16.263368,sleep,9.840169,1.695095,-0.335188,-0.042368,0.027446,-0.006928,72909
2025-02-26 01:44:16.263368,sleep,9.799467,1.683124,-0.320823,-0.031176,0.047697,-0.004796,72333
2025-02-26 01:44:16.263368,sleep,9.794679,1.675941,-0.397437,-0.026913,0.050361,0.002398,71872
2025-02-26 01:44:16.263368,sleep,9.876082,1.668759,-0.347159,-0.03091,0.051427,0.000799,71671
2025-02-26 01:44:16.263368,sleep,9.864111,1.675941,-0.438139,-0.03464,0.070346,-0.002132,71443
2025-02-26 01:44:16.263368,sleep,9.837775,1.613692,-0.430956,-0.044233,0.10845,-0.002132,71112
2025-02-26 01:44:16.263368,sleep,9.911995,1.68073,-0.423774,-0.058089,0.138827,-0.010126,70837
2025-02-26 01:44:16.263368,sleep,9.907207,1.728614,-0.205901,-0.064217,0.098591,-0.014655,71045
2025-02-26 01:44:16.263368,sleep,9.880871,1.692701,-0.198719,-0.058089,0.047963,-0.017587,70939
2025-02-26 01:44:16.263368,sleep,9.864111,1.675941,-0.186748,-0.050894,0.001332,-0.014123,70877
2025-02-26 01:44:16.263368,sleep,9.85214,1.68073,-0.316035,-0.04743,-0.017054,-0.013323,70893
2025-02-26 01:44:16.263368,sleep,9.871294,1.671153,-0.337582,-0.056757,-0.001599,-0.014922,71160
2025-02-26 01:44:16.263368,sleep,9.859323,1.678335,-0.225055,-0.056757,-0.020784,-0.015721,71290
2025-02-26 01:44:16.263368,sleep,9.825804,1.678335,-0.244209,-0.050361,-0.071678,-0.00906,71548
2025-02-26 01:44:16.263368,sleep,9.837775,1.66397,-0.335188,-0.045032,-0.064484,-0.010126,71700
2025-02-26 01:44:16.263368,sleep,9.890448,1.651999,-0.454898,-0.046098,-0.018652,-0.014655,71337
2025-02-26 01:44:16.263368,sleep,9.854534,1.685518,-0.378284,-0.052227,0.031975,-0.020784,70768
2025-02-26 01:44:16.263368,sleep,9.856929,1.695095,-0.25618,-0.042634,0.021317,-0.020518,70521
2025-02-26 01:44:16.263368,sleep,9.809045,1.685518,-0.335188,-0.037571,-0.022916,-0.012257,70593
2025-02-26 01:44:16.263368,sleep,9.842564,1.675941,-0.438139,-0.040236,-0.005329,-0.009326,70836
2025-02-26 01:44:16.263368,sleep,9.85214,1.642422,-0.361524,-0.043167,0.033041,-0.011724,70953
2025-02-26 01:44:16.263368,sleep,9.844957,1.66397,-0.270545,-0.03917,0.001066,-0.010126,70925
2025-02-26 01:44:16.263368,sleep,9.866506,1.683124,-0.356736,-0.035972,-0.045832,-0.007727,70733
2025-02-26 01:44:16.263368,sleep,9.82341,1.668759,-0.435745,-0.038371,-0.055158,-0.005063,70418
2025-02-26 01:44:16.263368,sleep,9.873688,1.659182,-0.526724,-0.041568,0.028778,-0.01279,69972
2025-02-26 01:44:16.263368,sleep,9.832987,1.671153,-0.407014,-0.04743,0.104453,-0.021051,69019
2025-02-26 01:44:16.263368,sleep,9.837775,1.675941,-0.311246,-0.046631,0.08207,-0.015188,68438
2025-02-26 01:44:16.263368,sleep,9.837775,1.678335,-0.227449,-0.045565,-0.007461,-0.013323,68632
2025-02-26 01:44:16.263368,sleep,9.902418,1.68073,-0.265756,-0.044766,-0.109516,-0.008793,69156
2025-02-26 01:44:16.263368,sleep,9.825804,1.68073,-0.469264,-0.046897,-0.12657,-0.00906,69723
2025-02-26 01:44:16.263368,sleep,9.782708,1.637634,-0.579397,-0.050361,-0.022383,-0.013057,69777
2025-02-26 01:44:16.263368,sleep,9.80665,1.661576,-0.440533,-0.047963,0.079139,-0.015188,69454
2025-02-26 01:44:16.263368,sleep,9.818622,1.690306,-0.304064,-0.046098,0.046098,-0.010392,68992
2025-02-26 01:44:16.263368,sleep,9.871294,1.673547,-0.277727,-0.042101,-0.058089,-0.004796,69723
2025-02-26 01:44:16.263368,sleep,9.849746,1.640028,-0.490811,-0.038371,-0.121507,-0.003198,69078
2025-02-26 01:44:16.263368,sleep,9.78989,1.644817,-0.624887,-0.044499,-0.049828,-0.00906,68989
2025-02-26 01:44:16.263368,sleep,9.82341,1.661576,-0.584185,-0.054358,0.013856,-0.009859,68878
2025-02-26 01:44:16.263368,sleep,9.856929,1.656788,-0.502782,-0.061286,0.033841,-0.011458,68695
2025-02-26 01:44:16.263368,sleep,9.80665,1.666364,-0.454898,-0.058888,0.021051,-0.011724,68207
2025-02-26 01:44:16.263368,sleep,9.799467,1.654393,-0.42138,-0.054358,0.001332,-0.005862,67894
2025-02-26 01:44:16.263368,sleep,9.878476,1.656788,-0.445322,-0.04823,-0.02638,-0.005063,67441
2025-02-26 01:44:16.263368,sleep,9.787497,1.699883,-0.423774,-0.042101,-0.067681,-0.00826,67216
2025-02-26 01:44:16.263368,sleep,9.849746,1.668759,-0.538695,-0.038104,-0.101256,-0.006928,67365
2025-02-26 01:44:16.263368,sleep,9.85214,1.661576,-0.557849,-0.034374,-0.099923,-0.009593,67287
2025-02-26 01:44:16.263368,sleep,9.792285,1.63524,-0.600945,-0.034107,-0.071945,-0.01279,66954
2025-02-26 01:44:16.263368,sleep,9.813833,1.580173,-0.526724,-0.033308,-0.066882,-0.010392,66721
2025-02-26 01:44:16.263368,sleep,9.844957,1.563414,-0.586579,-0.03464,-0.074343,-0.005862,66670
2025-02-26 01:44:16.263368,sleep,9.923966,1.642422,-0.222661,0.004796,-0.151884,-0.016787,68013
2025-02-26 01:44:16.263368,sleep,9.873688,1.66397,-0.670376,0.020784,-0.350398,-0.015721,69971
2025-02-26 01:44:16.263368,sleep,9.756371,1.776498,-0.936133,-0.004796,-0.492956,-0.009326,72509
2025-02-26 01:44:16.263368,sleep,9.622296,1.625663,-1.412579,-0.034374,-0.39996,-0.006395,73582
2025-02-26 01:44:16.263368,sleep,9.507375,1.460463,-1.496376,-0.082603,0.083403,-0.005329,72400
2025-02-26 01:44:16.263368,sleep,9.859323,1.640028,-0.737414,-0.06928,0.429804,-0.015188,70435
2025-02-26 01:44:16.263368,sleep,9.919178,1.690306,-0.234632,-0.0437,0.167605,-0.010658,69445
2025-02-26 01:44:16.263368,sleep,9.842564,1.640028,-0.641646,-0.043966,-0.251008,0.007461,69981
2025-02-26 01:44:16.263368,sleep,9.655815,1.584962,-1.091756,-0.055957,-0.239816,0.00373,70515
2025-02-26 01:44:16.263368,sleep,9.701305,1.628057,-1.077391,-0.064217,-0.034374,-0.003997,70479
2025-02-26 01:44:16.263368,sleep,9.842564,1.632846,-0.773327,-0.06102,0.027446,-0.00826,70220
2025-02-26 01:44:16.263368,sleep,9.794679,1.66397,-0.584185,-0.03544,-0.080738,-0.008527,70296
2025-02-26 01:44:16.263368,sleep,9.830592,1.659182,-0.723049,-0.011724,-0.24328,-0.00373,70828
2025-02-26 01:44:16.263368,sleep,9.65821,1.762132,-1.130063,-0.002665,-0.338674,0.000266,71501
2025-02-26 01:44:16.263368,sleep,9.655815,1.546654,-1.434127,0.010658,-0.135896,-0.021051,71455
2025-02-26 01:44:16.263368,sleep,9.696517,1.505953,-1.405396,-0.054358,0.112714,-0.019185,70053
2025-02-26 01:44:16.263368,sleep,9.77792,1.568202,-1.118092,-0.085534,0.136429,-0.013323,69251
2025-02-26 01:44:16.263368,sleep,9.832987,1.596933,-0.897826,-0.076475,0.102055,-0.018386,68824
2025-02-26 01:44:16.263368,sleep,9.768343,1.651999,-0.864307,-0.046098,0.083403,-0.029311,67994
2025-02-26 01:44:16.263368,sleep,9.634268,1.659182,-1.034295,-0.013323,0.147354,-0.024781,66446
2025-02-26 01:44:16.263368,sleep,9.809045,1.651999,-0.984017,-0.061819,-0.094594,0.005063,66143
2025-02-26 01:44:16.263368,sleep,9.742006,1.750161,-0.897826,-0.079672,-0.410885,0.010392,66892
2025-02-26 01:44:16.263368,sleep,9.617508,1.61848,-1.249773,-0.006129,-0.315492,-0.025047,67222
2025-02-26 01:44:16.263368,sleep,9.61272,1.513135,-1.398214,-0.018652,-0.112447,-0.012257,67244
2025-02-26 01:44:16.263368,sleep,9.725247,1.572991,-1.367089,-0.050361,0.099657,-0.007727,66800
2025-02-26 01:44:16.263368,sleep,9.76116,1.611298,-1.086968,-0.073011,0.076741,-0.006395,66599
2025-02-26 01:44:16.263368,sleep,9.65821,1.584962,-1.106121,-0.058355,-0.082337,-0.000533,66750
2025-02-26 01:44:16.263368,sleep,9.61272,1.594538,-1.429338,-0.033574,-0.157213,0.003198,67063
2025-02-26 01:44:16.263368,sleep,9.528923,1.467646,-1.556231,-0.014922,-0.055158,0.005063,66800
2025-02-26 01:44:16.263368,sleep,9.636662,1.391031,-1.525106,-0.013323,0.154282,0.012524,68361
2025-02-26 01:44:16.263368,sleep,9.797073,1.422156,-1.201889,0.006395,0.369051,-0.012257,68188
2025-02-26 01:44:16.263368,sleep,10.22803,1.740585,-0.086191,0.052493,0.148686,-0.03464,69833
2025-02-26 01:44:16.263368,sleep,9.799467,1.910573,-0.462081,0.042368,-0.288579,-0.027979,71821
2025-02-26 01:44:16.263368,sleep,9.598354,1.580173,-1.309628,0.021051,-0.58675,0.000799,75131
2025-02-26 01:44:16.263368,sleep,9.615114,1.549049,-1.699883,-0.01279,-0.565433,-0.001599,78161
2025-02-26 01:44:16.263368,sleep,9.504981,1.565808,-1.685518,-0.045032,-0.483896,0.006928,80716
2025-02-26 01:44:16.263368,sleep,9.531317,1.484405,-1.75495,-0.05649,-0.321354,0.01359,82851
2025-02-26 01:44:16.263368,sleep,9.576807,1.400608,-1.704672,-0.063685,-0.185724,0.015988,84981
2025-02-26 01:44:16.263368,sleep,9.524135,1.405396,-1.872266,-0.071945,-0.101256,0.020518,86853
2025-02-26 01:44:16.263368,sleep,9.698911,0.828394,-1.719037,-0.125237,-0.050095,0.041035,88715
2025-02-26 01:44:16.263368,sleep,9.366117,2.389413,-1.462857,-0.125237,-0.101256,0.037305,91426
2025-02-26 01:44:16.263368,sleep,9.665392,1.620875,-1.608904,-0.079672,0.03091,0.011991,91451
2025-02-26 01:44:16.263368,sleep,9.610326,1.54426,-1.537078,-0.066616,0.016787,-0.000266,92419
2025-02-26 01:44:16.263368,sleep,9.591172,1.539472,-1.642422,-0.066349,0.027179,0.000799,92512
2025-02-26 01:44:16.263368,sleep,9.607931,1.529895,-1.699883,-0.059954,0.027179,-0.007727,92277
2025-02-26 01:44:16.263368,sleep,9.56723,1.525106,-1.84593,-0.062619,0.067415,-0.006129,91661
2025-02-26 01:44:16.263368,sleep,9.564836,1.508347,-1.673547,-0.064217,0.171868,-0.01359,90857
2025-02-26 01:44:16.263368,sleep,9.55047,1.580173,-1.429338,-0.063951,0.134564,-0.011458,91030
2025-02-26 01:44:16.263368,sleep,9.672575,1.508347,-1.429338,-0.044499,-0.009326,-0.021051,91869
2025-02-26 01:44:16.263368,sleep,9.588778,1.546654,-1.616086,-0.026113,-0.056224,-0.026113,92271
2025-02-26 01:44:16.263368,sleep,9.605537,1.584962,-1.474828,-0.025847,-0.07008,-0.032775,92590
2025-02-26 01:44:16.263368,sleep,9.648633,1.537078,-1.522712,-0.012257,-0.213703,-0.029311,91030
2025-02-26 01:44:16.263368,sleep,9.68694,1.522712,-1.553837,0.016254,-0.379443,-0.045565,95713
2025-02-26 01:44:16.263368,sleep,9.555259,1.570596,-1.805228,0.039969,-0.505746,-0.046098,96769
2025-02-26 01:44:16.263368,sleep,9.397242,1.596933,-2.126051,0.005329,-0.538521,-0.025314,92590
2025-02-26 01:44:16.263368,sleep,9.500193,1.532289,-2.118869,-0.008793,-0.463378,-0.022649,100661
2025-02-26 01:44:16.263368,sleep,9.332599,1.577779,-1.980005,-0.006395,-0.399161,-0.024781,100049
2025-02-26 01:44:16.263368,sleep,9.289502,1.584962,-2.300828,-0.009326,-0.407421,-0.000266,100401
2025-02-26 01:44:16.263368,sleep,9.332599,1.656788,-2.557007,-0.033308,-0.348799,0.006395,100996
2025-02-26 01:44:16.263368,sleep,9.323022,1.644817,-2.664747,-0.037305,-0.207841,-0.017054,100170
2025-02-26 01:44:16.263368,sleep,9.212888,1.522712,-2.537854,-0.049029,-0.010925,-0.016254,98272
2025-02-26 01:44:16.263368,sleep,9.244013,1.620875,-2.343924,-0.047164,0.141492,0.003464,96228
2025-02-26 01:44:16.263368,sleep,9.299079,1.716643,-2.245761,-0.022383,0.1303,0.010392,94122
2025-02-26 01:44:16.263368,sleep,9.390059,1.522712,-2.355895,-0.014389,0.123639,0.028245,90386
2025-02-26 01:44:16.263368,sleep,9.469068,1.414973,-2.540248,-0.033841,0.325351,0.007461,86712
2025-02-26 01:44:16.263368,sleep,9.404425,1.335965,-2.60968,-0.055691,0.5649,-0.01359,85769
2025-02-26 01:44:16.263368,sleep,9.380483,1.405396,-2.30801,-0.074343,0.731706,-0.015188,86974
2025-02-26 01:44:16.263368,sleep,9.390059,1.458069,-1.987187,-0.080738,0.829498,-0.003997,86453
2025-02-26 01:44:16.263368,sleep,10.17536,1.16837,-1.285686,-0.081271,0.759152,-0.033308,85219
2025-02-26 01:44:16.263368,sleep,9.303867,1.417367,-1.221043,-0.074876,0.333078,-0.006928,84590
2025-02-26 01:44:16.263368,sleep,9.868899,1.51553,-1.381454,-0.056224,0.111914,0.001599,83151
2025-02-26 01:44:16.263368,sleep,9.713276,1.458069,-1.563414,-0.043167,-0.007994,-0.020518,81655
2025-02-26 01:44:16.263368,sleep,9.519346,1.596933,-1.745373,-0.02185,0.040236,-0.025314,81228
2025-02-26 01:44:16.263368,sleep,9.624691,1.484405,-1.776498,-0.054358,0.012524,-0.017054,81439
2025-02-26 01:44:16.263368,sleep,9.598354,1.292869,-1.426944,-0.049296,-0.056224,-0.010392,81617
2025-02-26 01:44:16.263368,sleep,9.562442,1.376666,-1.611298,0.00453,0.039436,-0.011191,80561
2025-02-26 01:44:16.263368,sleep,9.61272,1.455675,-1.889025,0.01279,0.247277,-0.021583,77638
2025-02-26 01:44:16.263368,sleep,9.610326,1.460463,-1.757344,0,0.431403,-0.034907,73685
2025-02-26 01:44:16.263368,sleep,9.643845,1.520318,-1.45328,-0.000799,0.465243,-0.037838,69744
2025-02-26 01:44:16.263368,sleep,9.715671,1.56102,-1.254562,-0.00373,0.290178,-0.026646,68218
2025-02-26 01:44:16.263368,sleep,9.694122,1.568202,-1.264138,-0.005596,0.062086,-0.017054,67548
2025-02-26 01:44:16.263368,sleep,9.648633,1.503559,-1.364695,-0.010126,-0.065816,-0.006928,67484
2025-02-26 01:44:16.263368,sleep,9.631873,1.508347,-1.594538,-0.013323,-0.011724,-0.006928,67401
2025-02-26 01:44:16.263368,sleep,9.619903,1.546654,-1.556231,-0.031443,0.05276,-0.003198,67302
2025-02-26 01:44:16.263368,sleep,9.696517,1.505953,-1.460463,-0.053026,0.068214,-0.01279,67170
2025-02-26 01:44:16.263368,sleep,9.698911,1.489193,-1.345541,-0.057556,0.028511,-0.015188,67080
2025-02-26 01:44:16.263368,sleep,9.682152,1.39582,-1.273715,-0.042368,-0.002931,-0.015188,67044
2025-02-26 01:44:16.263368,sleep,9.67018,1.422156,-1.352724,-0.023449,-0.03464,-0.014389,67068
2025-02-26 01:44:16.263368,sleep,9.68694,1.446098,-1.446098,-0.010392,-0.033574,-0.017587,67052
2025-02-26 01:44:16.263368,sleep,9.655815,1.493982,-1.537078,-0.016254,-0.039969,-0.018652,67045
2025-02-26 01:44:16.263368,sleep,9.617508,1.513135,-1.525106,-0.023449,-0.045832,-0.014389,67001
2025-02-26 01:44:16.263368,sleep,9.636662,1.568202,-1.522712,-0.027179,-0.025047,-0.015188,66897
2025-02-26 01:44:16.263368,sleep,9.677363,1.517924,-1.527501,-0.031975,-0.00906,-0.025047,66732
2025-02-26 01:44:16.263368,sleep,9.651027,1.482011,-1.479617,-0.049562,-0.083136,-0.022649,66684
2025-02-26 01:44:16.263368,sleep,9.61272,1.491588,-1.455675,-0.046897,-0.139626,-0.019185,66533
2025-02-26 01:44:16.263368,sleep,9.564836,1.484405,-1.642422,-0.033308,-0.111648,-0.014123,66180
2025-02-26 01:44:16.263368,sleep,9.574412,1.467646,-1.795651,-0.043433,-0.005329,-0.013323,65955
2025-02-26 01:44:16.263368,sleep,9.703699,1.455675,-1.723825,-0.062619,0.110315,-0.018386,65465
2025-02-26 01:44:16.263368,sleep,9.600749,1.472434,-1.508347,-0.054625,0.154282,-0.033574,64685
2025-02-26 01:44:16.263368,sleep,9.739613,1.51553,-1.472434,-0.051161,0.162276,-0.040236,62509
2025-02-26 01:44:16.263368,sleep,9.691729,1.862689,-1.271321,-0.006928,0.135629,-0.071412,60264
2025-02-26 01:44:16.263368,sleep,9.751583,1.484405,-0.936133,0.094061,0.134031,-0.100456,65465
2025-02-26 01:44:16.263368,sleep,9.536105,1.063026,-1.25935,0.14309,0.13936,-0.087933,57684
2025-02-26 01:44:16.263368,sleep,9.342175,1.285686,-2.087744,0.045032,-0.049296,-0.010126,59130
2025-02-26 01:44:16.263368,sleep,9.756371,0.952892,-2.090138,-0.074876,-0.095926,0.039969,60848
2025-02-26 01:44:16.263368,sleep,9.624691,1.467646,-1.78368,-0.110848,0.089265,0.024248,61841
2025-02-26 01:44:16.263368,sleep,9.739613,1.63524,-1.410185,-0.073544,0.311761,-0.007461,62596
2025-02-26 01:44:16.263368,sleep,9.713276,1.740585,-1.084573,-0.038371,0.332279,-0.032242,62824
2025-02-26 01:44:16.263368,sleep,9.706094,1.802834,-1.036689,-0.029577,0.130567,-0.034107,62752
2025-02-26 01:44:16.263368,sleep,9.662998,1.68073,-1.438915,-0.037571,-0.087133,-0.005862,62246
2025-02-26 01:44:16.263368,sleep,9.873688,2.185906,-1.637634,-0.045032,-0.110315,-0.050628,60975
2025-02-26 01:44:16.263368,sleep,10.25437,2.173935,-0.792481,0.090331,-0.092995,-0.212104,58131
2025-02-26 01:44:16.263368,sleep,10.00776,1.225831,-0.356736,0.372248,-0.19132,-0.357593,57160
2025-02-26 01:44:16.263368,sleep,9.473856,1.067814,-1.096544,0.464444,-0.216368,-0.390634,56661
2025-02-26 01:44:16.263368,sleep,8.901642,0.984017,-2.260126,0.305366,-0.184658,-0.196383,57191
2025-02-26 01:44:16.263368,sleep,8.8777,1.558625,-2.920926,0.060221,-0.138827,-0.009593,58331
2025-02-26 01:44:16.263368,sleep,9.555259,1.513135,-2.315193,-0.121773,0.010658,0.058089,57736
2025-02-26 01:44:16.263368,sleep,10.00537,1.474828,-1.491588,-0.114312,0.15668,0.002398,55949
2025-02-26 01:44:16.263368,sleep,9.825804,1.601721,-1.218649,-0.03544,0.214502,-0.071678,55838
2025-02-26 01:44:16.263368,sleep,9.440337,1.661576,-1.290475,-0.002931,0.137228,-0.066616,55673
2025-02-26 01:44:16.263368,sleep,9.289502,1.656788,-1.534683,-0.009859,0.011458,-0.00453,55487
2025-02-26 01:44:16.263368,sleep,9.49301,1.568202,-1.587356,-0.02638,-0.037571,0.047963,55736
2025-02-26 01:44:16.263368,sleep,9.792285,1.601721,-1.762132,-0.036772,0.049828,0.034374,54975
2025-02-26 01:44:16.263368,sleep,9.749189,1.644817,-1.697489,-0.059954,0.132432,-0.001865,50903
2025-02-26 01:44:16.263368,sleep,9.509769,1.66397,-1.422156,-0.071412,0.074609,-0.006395,55487
2025-02-26 01:44:16.263368,sleep,9.665392,1.642422,-1.558625,-0.061553,-0.052227,0.014389,27560
2025-02-26 01:44:16.263368,sleep,9.782708,1.587356,-1.503559,-0.061553,-0.072478,-0.017054,23110
2025-02-26 01:44:16.263368,sleep,9.64145,1.580173,-1.587356,-0.048763,-0.053559,-0.034374,21016
2025-02-26 01:44:16.263368,sleep,9.581595,1.628057,-1.493982,-0.029044,-0.00453,-0.044499,24456
2025-02-26 01:44:16.263368,sleep,9.725247,1.613692,-1.505953,-0.004796,-0.01732,-0.050095,48018
2025-02-26 01:44:16.263368,sleep,9.49301,1.580173,-1.915361,-0.03011,-0.081804,-0.051161,99556
2025-02-26 01:44:16.263368,sleep,9.100361,1.640028,-1.872266,-0.09566,-0.110315,0.016787,114604
2025-02-26 01:44:16.263368,sleep,9.916783,1.577779,-1.534683,-0.066882,0.001066,0.027446,115955
2025-02-26 01:44:16.263368,sleep,9.49301,1.616086,-1.49877,-0.017853,0.147087,-0.014123,117846
2025-02-26 01:44:16.263368,sleep,9.629479,1.570596,-1.606509,-0.00453,0.152949,-0.000266,119756
2025-02-26 01:44:16.263368,sleep,9.847352,1.54426,-1.659182,-0.023449,0.099657,-0.021317,121146
2025-02-26 01:44:16.263368,sleep,9.672575,1.582567,-1.539472,-0.042101,-0.015721,-0.042368,121859
2025-02-26 01:44:16.263368,sleep,9.55047,1.601721,-1.551443,-0.043167,-0.070613,-0.039703,122332
2025-02-26 01:44:16.263368,sleep,9.548077,1.606509,-1.594538,-0.031975,-0.067415,-0.032508,122498
2025-02-26 01:44:16.263368,sleep,9.564836,1.616086,-1.683124,-0.020784,-0.013057,-0.032242,122390
2025-02-26 01:44:16.263368,sleep,9.512163,1.625663,-1.63524,-0.016787,0.040236,-0.026646,121860
2025-02-26 01:44:16.263368,sleep,9.504981,1.596933,-1.668759,-0.012524,0.077807,-0.014655,121068
2025-02-26 01:44:16.263368,sleep,9.756371,1.58975,-1.649605,-0.003997,0.113779,-0.023182,120351
2025-02-26 01:44:16.263368,sleep,9.701305,1.587356,-1.61848,-0.017853,0.105786,-0.054625,119895
2025-02-26 01:44:16.263368,sleep,9.469068,1.640028,-1.599327,-0.02638,0.035706,-0.047164,119371
2025-02-26 01:44:16.263368,sleep,9.437943,1.644817,-1.575385,-0.029044,-0.002132,-0.017054,118960
2025-02-26 01:44:16.263368,sleep,9.605537,1.596933,-1.632846,-0.023182,0.011191,-0.005596,118839
2025-02-26 01:44:16.263368,sleep,9.689334,1.606509,-1.608904,-0.020518,0.05649,-0.02185,118643
2025-02-26 01:44:16.263368,sleep,9.572019,1.594538,-1.584962,-0.018652,0.062885,-0.026113,118418
2025-02-26 01:44:16.263368,sleep,9.531317,1.608904,-1.620875,-0.020784,0.047963,-0.014655,118333
2025-02-26 01:44:16.263368,sleep,9.605537,1.592144,-1.587356,-0.023982,0.036772,-0.006395,118357
2025-02-26 01:44:16.263368,sleep,9.61272,1.608904,-1.587356,-0.024515,0.050095,-0.009859,118596
2025-02-26 01:44:16.263368,sleep,9.617508,1.58975,-1.642422,-0.027446,0.063152,-0.015721,118726
2025-02-26 01:44:16.263368,sleep,9.662998,1.594538,-1.570596,-0.036772,0.049562,-0.019985,118601
2025-02-26 01:44:16.263368,sleep,9.600749,1.623269,-1.501164,-0.038904,-0.006928,-0.020784,118362
2025-02-26 01:44:16.263368,sleep,9.574412,1.61848,-1.489193,-0.038104,-0.110315,-0.002665,117815
2025-02-26 01:44:16.263368,sleep,9.576807,1.613692,-1.599327,-0.029577,-0.157746,0.003997,117013
2025-02-26 01:44:16.263368,sleep,9.634268,1.575385,-1.78368,-0.027979,-0.104453,-0.006662,115845
2025-02-26 01:44:16.263368,sleep,9.655815,1.558625,-1.802834,-0.032775,0.012257,-0.026913,118362
2025-02-26 01:44:16.263368,sleep,9.665392,1.56102,-1.687912,-0.03091,0.13936,-0.053559,109026
2025-02-26 01:44:16.263368,sleep,9.67018,1.577779,-1.539472,-0.025047,0.151617,-0.070613,100534
2025-02-26 01:44:16.263368,sleep,9.543288,1.668759,-1.446098,-0.022649,0.001066,-0.060221,91414
2025-02-26 01:44:16.263368,sleep,9.512163,1.66397,-1.546654,-0.021317,-0.188922,-0.033308,84024
2025-02-26 01:44:16.263368,sleep,9.488221,1.584962,-1.644817,-0.02638,-0.308031,0.000533,77856
2025-02-26 01:44:16.263368,sleep,9.543288,1.599327,-1.762132,-0.022649,-0.287779,-0.00453,74383
2025-02-26 01:44:16.263368,sleep,9.531317,1.580173,-1.924938,-0.017853,-0.203844,-0.010126,73436
2025-02-26 01:44:16.263368,sleep,9.481039,1.61848,-1.944092,-0.014123,-0.058355,-0.014922,73459
2025-02-26 01:44:16.263368,sleep,9.509769,1.599327,-1.936909,-0.001599,0.115112,-0.025847,73700
2025-02-26 01:44:16.263368,sleep,9.461885,1.56102,-1.900996,0.00453,0.256337,-0.029577,74036
2025-02-26 01:44:16.263368,sleep,9.504981,1.611298,-1.841141,-0.000799,0.322153,-0.02558,75351
2025-02-26 01:44:16.263368,sleep,9.665392,1.592144,-1.719037,-0.016787,0.277654,-0.028245,76705
2025-02-26 01:44:16.263368,sleep,9.624691,1.599327,-1.568202,-0.036772,0.101256,-0.025314,77685
2025-02-26 01:44:16.263368,sleep,9.528923,1.608904,-1.582567,-0.048496,-0.080472,-0.007194,80124
2025-02-26 01:44:16.263368,sleep,9.502586,1.604115,-1.764527,-0.051694,-0.123905,0.011191,82529
2025-02-26 01:44:16.263368,sleep,9.564836,1.580173,-1.867477,-0.05196,-0.031709,0.007194,83623
2025-02-26 01:44:16.263368,sleep,9.627085,1.56102,-1.833959,-0.052227,0.09939,-0.012257,83683
2025-02-26 01:44:16.263368,sleep,9.660604,1.568202,-1.742979,-0.050095,0.175332,-0.033308,83468
2025-02-26 01:44:16.263368,sleep,9.655815,1.58975,-1.649605,-0.045832,0.188655,-0.05196,82843
2025-02-26 01:44:16.263368,sleep,9.524135,1.601721,-1.620875,-0.041835,0.158545,-0.053292,81948
2025-02-26 01:44:16.263368,sleep,9.504981,1.620875,-1.594538,-0.0429,0.118576,-0.038104,83683
2025-02-26 01:44:16.263368,sleep,9.564836,1.620875,-1.582567,-0.0429,0.0866,-0.026646,81082
2025-02-26 01:44:16.263368,sleep,9.603143,1.616086,-1.575385,-0.041035,0.056757,-0.019718,79681
2025-02-26 01:44:16.263368,sleep,9.615114,1.606509,-1.551443,-0.031176,0.054358,-0.020784,78103
2025-02-26 01:44:16.263368,sleep,9.588778,1.601721,-1.628057,-0.026113,0.065816,-0.022383,77091
2025-02-26 01:44:16.263368,sleep,9.64145,1.613692,-1.620875,-0.03091,0.06555,-0.027179,77013
2025-02-26 01:44:16.263368,sleep,9.583989,1.611298,-1.587356,-0.03464,0.047963,-0.030377,76723
2025-02-26 01:44:16.263368,sleep,9.55047,1.625663,-1.620875,-0.037038,0.031176,-0.022116,75387
2025-02-26 01:44:16.263368,sleep,9.648633,1.606509,-1.556231,-0.035972,0.027712,-0.015721,74672
2025-02-26 01:44:16.263368,sleep,9.651027,1.63524,-1.501164,-0.030377,0.021051,-0.023982,77911
2025-02-26 01:44:16.263368,sleep,9.495404,1.628057,-1.582567,-0.014389,-0.043433,-0.002398,91185
2025-02-26 01:44:16.263368,sleep,9.595961,1.58975,-1.807622,-0.042634,-0.021583,-0.00373,97357
2025-02-26 01:44:16.263368,sleep,9.615114,1.599327,-1.606509,-0.048763,-0.013856,-0.001332,95850
2025-02-26 01:44:16.263368,sleep,9.634268,1.587356,-1.699883,-0.035173,0.039703,-0.016254,86960
2025-02-26 01:44:16.263368,sleep,9.524135,1.587356,-1.647211,-0.049562,0.024515,-0.015188,70750
2025-02-26 01:44:16.263368,sleep,9.466674,1.61848,-1.654393,-0.06102,-0.049296,0.010658,61087
2025-02-26 01:44:16.263368,sleep,9.378088,1.604115,-1.836353,-0.097792,-0.148953,0.046631,71600
2025-02-26 01:44:16.263368,sleep,9.502586,1.584962,-1.771709,-0.149485,-0.243547,0.078074,90687
2025-02-26 01:44:16.263368,sleep,9.557653,1.472434,-1.781286,-0.147087,-0.207574,0.0866,104280
2025-02-26 01:44:16.263368,sleep,9.684546,1.54426,-1.745373,-0.119908,-0.07008,0.059155,107843
2025-02-26 01:44:16.263368,sleep,9.646238,1.537078,-1.838747,-0.108983,0.018919,0.028778,112212
2025-02-26 01:44:16.263368,sleep,9.591172,1.541866,-1.695095,-0.112714,0.02638,0.020251,114109
2025-02-26 01:44:16.263368,sleep,9.624691,1.582567,-1.640028,-0.098325,0.014655,0.011724,115180
2025-02-26 01:44:16.263368,sleep,9.61272,1.532289,-1.798046,-0.087933,0.045299,-0.002931,115574
2025-02-26 01:44:16.263368,sleep,9.382876,1.56102,-1.90339,-0.103387,0.025314,0.013057,112212
2025-02-26 01:44:16.263368,sleep,9.382876,1.546654,-1.853112,-0.139893,-0.03917,0.059421,117379
2025-02-26 01:44:16.263368,sleep,9.684546,1.51553,-1.640028,-0.144156,-0.083136,0.075142,118877
2025-02-26 01:44:16.263368,sleep,9.864111,1.479617,-1.735796,-0.115911,-0.01732,0.021317,119991
2025-02-26 01:44:16.263368,sleep,9.588778,1.496376,-1.788469,-0.101522,0.063951,-0.018386,120906
2025-02-26 01:44:16.263368,sleep,9.449914,1.534683,-1.750161,-0.093262,0.120708,-0.007194,121910
2025-02-26 01:44:16.263368,sleep,9.639056,1.493982,-1.721431,-0.082603,0.154015,0,122787
2025-02-26 01:44:16.263368,sleep,9.725247,1.501164,-1.790863,-0.081538,0.158012,-0.024781,123424
2025-02-26 01:44:16.263368,sleep,9.433155,1.537078,-1.788469,-0.108983,0.094061,-0.016521,123948
2025-02-26 01:44:16.263368,sleep,9.351752,1.56102,-1.84593,-0.139093,0.062352,0.031176,124540
2025-02-26 01:44:16.263368,sleep,9.639056,1.489193,-1.671153,-0.140959,0.142025,0.044233,125243
2025-02-26 01:44:16.263368,sleep,9.837775,1.472434,-1.539472,-0.119375,0.223562,0.006662,125749
2025-02-26 01:44:16.263368,sleep,9.672575,1.546654,-1.479617,-0.110315,0.183593,-0.024781,126164
2025-02-26 01:44:16.263368,sleep,9.397242,1.553837,-1.51553,-0.118576,0.044233,-0.000799,126642
2025-02-26 01:44:16.263368,sleep,9.528923,1.520318,-1.630451,-0.122306,0.006395,0.037305,127045
2025-02-26 01:44:16.263368,sleep,9.818622,1.465251,-1.716643,-0.123106,0.113779,0.01279,127331
2025-02-26 01:44:16.263368,sleep,9.763555,1.505953,-1.659182,-0.134297,0.143623,-0.022916,127427
2025-02-26 01:44:16.263368,sleep,9.528923,1.551443,-1.517924,-0.150818,0.06475,-0.022383,127474
2025-02-26 01:44:16.263368,sleep,9.435549,1.558625,-1.493982,-0.163608,-0.047164,0.017853,127558
2025-02-26 01:44:16.263368,sleep,9.598354,1.520318,-1.546654,-0.150551,-0.018119,0.045832,127553
2025-02-26 01:44:16.263368,sleep,9.890448,1.474828,-1.482011,-0.111381,0.172934,0.002132,127370
2025-02-26 01:44:16.263368,sleep,9.842564,1.503559,-1.414973,-0.086067,0.247011,-0.044766,126983
2025-02-26 01:44:16.263368,sleep,9.684546,1.527501,-1.261744,-0.075942,0.161743,-0.059421,126590
2025-02-26 01:44:16.263368,sleep,9.662998,1.546654,-1.383849,-0.076741,-0.004796,-0.047963,126548
2025-02-26 01:44:16.263368,sleep,9.555259,1.551443,-1.426944,-0.095127,-0.136695,-0.025047,126640
2025-02-26 01:44:16.263368,sleep,9.536105,1.565808,-1.438915,-0.093262,-0.172401,-0.005329,126802
2025-02-26 01:44:16.263368,sleep,9.560047,1.537078,-1.403002,-0.065283,-0.120175,0.006928,126961
2025-02-26 01:44:16.263368,sleep,9.629479,1.539472,-1.47004,-0.03091,-0.052227,0.003464,126548
2025-02-26 01:44:16.263368,sleep,9.569624,1.532289,-1.61848,-0.022116,-0.043167,0.012524,127378
2025-02-26 01:44:16.263368,sleep,9.682152,1.496376,-1.733402,-0.025047,0.055957,0.003198,127491
2025-02-26 01:44:16.263368,sleep,9.727641,1.501164,-1.606509,-0.024781,0.174266,-0.024781,127628
2025-02-26 01:44:16.263368,sleep,9.708488,1.513135,-1.37906,-0.011458,0.210772,-0.047963,127645
2025-02-26 01:44:16.263368,sleep,9.651027,1.537078,-1.242591,0.012257,0.1303,-0.050628,127649
2025-02-26 01:44:16.263368,sleep,9.600749,1.568202,-1.211466,0.042634,-0.021051,-0.033308,127598
2025-02-26 01:44:16.263368,sleep,9.569624,1.558625,-1.357512,0.067681,-0.136695,-0.012257,127527
2025-02-26 01:44:16.263368,sleep,9.67018,1.527501,-1.568202,0.083136,-0.1303,-0.014655,127398
2025-02-26 01:44:16.263368,sleep,9.734824,1.479617,-1.647211,0.087666,-0.071412,-0.039969,127303
2025-02-26 01:44:16.263368,sleep,9.617508,1.505953,-1.699883,0.07381,-0.102322,-0.053825,127171
2025-02-26 01:44:16.263368,sleep,9.437943,1.513135,-1.726219,0.046897,-0.184126,-0.032242,127103
2025-02-26 01:44:16.263368,sleep,9.485827,1.486799,-1.82917,0.021051,-0.205443,-0.005063,127076
