Timestamp,Label,AccelX,AccelY,AccelZ,GyroX,GyroY,GyroZ,IR
2025-02-26 01:07:03.850337,sleep,10.03889,0.344765,1.84593,-0.054891,0.024781,-0.014389,82611
2025-02-26 01:07:03.850337,sleep,10.05086,0.337582,1.853112,-0.055158,0.022649,-0.015188,82624
2025-02-26 01:07:03.850337,sleep,10.04128,0.339977,1.865083,-0.055158,0.022916,-0.014389,82591
2025-02-26 01:07:03.850337,sleep,10.0317,0.363919,1.819593,-0.055424,0.023982,-0.01359,82577
2025-02-26 01:07:03.850337,sleep,10.04846,0.337582,1.853112,-0.055158,0.026113,-0.014922,82555
2025-02-26 01:07:03.850337,sleep,10.05086,0.328006,1.853112,-0.054891,0.021317,-0.014922,82555
2025-02-26 01:07:03.850337,sleep,10.02931,0.354342,1.826776,-0.054625,0.020251,-0.015721,82568
2025-02-26 01:07:03.850337,sleep,10.06283,0.347159,1.826776,-0.055158,0.024248,-0.013856,82564
2025-02-26 01:07:03.850337,sleep,10.06283,0.328006,1.87466,-0.055158,0.022916,-0.014389,82502
2025-02-26 01:07:03.850337,sleep,10.04846,0.335188,1.841141,-0.054891,0.022116,-0.014123,82547
2025-02-26 01:07:03.850337,sleep,10.02692,0.347159,1.82917,-0.054891,0.02558,-0.01279,82509
2025-02-26 01:07:03.850337,sleep,10.02452,0.349553,1.826776,-0.054891,0.023982,-0.013323,82458
2025-02-26 01:07:03.850337,sleep,10.04846,0.349553,1.84593,-0.054625,0.024515,-0.01359,82458
2025-02-26 01:07:03.850337,sleep,10.05086,0.347159,1.833959,-0.054092,0.024781,-0.014922,82379
2025-02-26 01:07:03.850337,sleep,10.04607,0.371101,1.862689,-0.055158,0.02185,-0.014389,82351
2025-02-26 01:07:03.850337,sleep,10.03889,0.344765,1.850718,-0.055158,0.022383,-0.014655,82357
2025-02-26 01:07:03.850337,sleep,10.03889,0.339977,1.869871,-0.054625,0.021317,-0.014389,82400
2025-02-26 01:07:03.850337,sleep,10.06522,0.349553,1.855506,-0.054891,0.022649,-0.014922,82435
2025-02-26 01:07:03.850337,sleep,10.06044,0.347159,1.817199,-0.055691,0.022916,-0.015188,82423
2025-02-26 01:07:03.850337,sleep,10.06044,0.349553,1.84593,-0.054092,0.022916,-0.014389,82425
2025-02-26 01:07:03.850337,sleep,10.06044,0.342371,1.855506,-0.054358,0.022916,-0.014655,82396
2025-02-26 01:07:03.850337,sleep,10.03649,0.347159,1.881842,-0.054358,0.023715,-0.015455,82428
2025-02-26 01:07:03.850337,sleep,10.05565,0.344765,1.831564,-0.054092,0.022916,-0.014655,82480
2025-02-26 01:07:03.850337,sleep,10.04607,0.356736,1.833959,-0.054358,0.023715,-0.014123,82471
2025-02-26 01:07:03.850337,sleep,10.05086,0.342371,1.843535,-0.055424,0.023715,-0.014389,82475
2025-02-26 01:07:03.850337,sleep,10.04368,0.342371,1.867477,-0.054891,0.022649,-0.014655,82472
2025-02-26 01:07:03.850337,sleep,10.04368,0.335188,1.87466,-0.055424,0.022649,-0.014389,82367
2025-02-26 01:07:03.850337,sleep,10.04846,0.347159,1.855506,-0.054358,0.021583,-0.013856,82322
2025-02-26 01:07:03.850337,sleep,10.04128,0.337582,1.836353,-0.054625,0.022116,-0.014389,82313
2025-02-26 01:07:03.850337,sleep,10.05086,0.347159,1.850718,-0.055158,0.023715,-0.014922,82310
2025-02-26 01:07:03.850337,sleep,10.04607,0.351948,1.836353,-0.054625,0.022649,-0.014123,82337
2025-02-26 01:07:03.850337,sleep,10.05565,0.354342,1.831564,-0.055158,0.022649,-0.014389,82343
2025-02-26 01:07:03.850337,sleep,10.05804,0.344765,1.848324,-0.054358,0.023982,-0.014922,82269
2025-02-26 01:07:03.850337,sleep,10.03889,0.337582,1.84593,-0.055424,0.023449,-0.013856,82243
2025-02-26 01:07:03.850337,sleep,10.02452,0.337582,1.843535,-0.054891,0.022916,-0.014655,82226
2025-02-26 01:07:03.850337,sleep,10.04128,0.354342,1.841141,-0.054891,0.023449,-0.013856,82201
2025-02-26 01:07:03.850337,sleep,10.05325,0.347159,1.877054,-0.054891,0.022916,-0.014123,82164
2025-02-26 01:07:03.850337,sleep,10.0317,0.342371,1.865083,-0.054891,0.023182,-0.014922,82181
2025-02-26 01:07:03.850337,sleep,10.05565,0.349553,1.833959,-0.055691,0.023182,-0.014389,82144
2025-02-26 01:07:03.850337,sleep,10.04846,0.339977,1.824382,-0.054625,0.021051,-0.013856,82156
2025-02-26 01:07:03.850337,sleep,10.0772,0.328006,1.82917,-0.054625,0.022649,-0.014389,82230
2025-02-26 01:07:03.850337,sleep,10.05325,0.344765,1.853112,-0.054625,0.023715,-0.013856,82236
2025-02-26 01:07:03.850337,sleep,10.05086,0.339977,1.862689,-0.055158,0.024248,-0.014655,82219
2025-02-26 01:07:03.850337,sleep,10.05325,0.339977,1.84593,-0.054358,0.021583,-0.014389,82184
2025-02-26 01:07:03.850337,sleep,10.04607,0.328006,1.821988,-0.054891,0.022649,-0.01359,82202
2025-02-26 01:07:03.850337,sleep,10.04368,0.351948,1.836353,-0.054092,0.023182,-0.014123,82156
2025-02-26 01:07:03.850337,sleep,10.0341,0.349553,1.860295,-0.054625,0.022649,-0.014922,82250
2025-02-26 01:07:03.850337,sleep,10.04368,0.354342,1.824382,-0.054891,0.024248,-0.014389,82265
2025-02-26 01:07:03.850337,sleep,10.03889,0.349553,1.862689,-0.054358,0.022116,-0.014655,82194
2025-02-26 01:07:03.850337,sleep,10.04368,0.354342,1.855506,-0.054891,0.018652,-0.014389,82118
2025-02-26 01:07:03.850337,sleep,10.06762,0.337582,1.824382,-0.054891,0.022649,-0.014922,82154
2025-02-26 01:07:03.850337,sleep,10.02931,0.342371,1.860295,-0.054891,0.023715,-0.014655,82116
2025-02-26 01:07:03.850337,sleep,10.04368,0.347159,1.843535,-0.054891,0.022916,-0.015188,82130
2025-02-26 01:07:03.850337,sleep,10.05086,0.342371,1.82917,-0.055158,0.023182,-0.014389,82115
2025-02-26 01:07:03.850337,sleep,10.04607,0.335188,1.831564,-0.054891,0.023715,-0.015455,82015
2025-02-26 01:07:03.850337,sleep,10.05804,0.344765,1.853112,-0.054891,0.02185,-0.015188,81926
2025-02-26 01:07:03.850337,sleep,10.05086,0.328006,1.857901,-0.055158,0.021317,-0.014123,81822
2025-02-26 01:07:03.850337,sleep,10.04607,0.347159,1.865083,-0.054891,0.022383,-0.014922,81799
2025-02-26 01:07:03.850337,sleep,10.05565,0.339977,1.848324,-0.055158,0.021317,-0.014123,81745
2025-02-26 01:07:03.850337,sleep,10.04607,0.347159,1.84593,-0.055691,0.023182,-0.014123,81675
2025-02-26 01:07:03.850337,sleep,10.03889,0.361524,1.84593,-0.054891,0.023182,-0.014123,81661
2025-02-26 01:07:03.850337,sleep,10.05086,0.342371,1.867477,-0.055424,0.022916,-0.015721,81658
2025-02-26 01:07:03.850337,sleep,10.04368,0.339977,1.855506,-0.054625,0.021583,-0.014655,81691
2025-02-26 01:07:03.850337,sleep,10.04128,0.335188,1.833959,-0.054625,0.022649,-0.015721,81642
2025-02-26 01:07:03.850337,sleep,10.04607,0.349553,1.841141,-0.055424,0.025314,-0.014655,81667
2025-02-26 01:07:03.850337,sleep,10.05086,0.349553,1.807622,-0.054891,0.022916,-0.015188,81667
2025-02-26 01:07:03.850337,sleep,10.03649,0.342371,1.848324,-0.053825,0.021317,-0.014389,81648
2025-02-26 01:07:03.850337,sleep,10.02692,0.342371,1.833959,-0.055158,0.023715,-0.014655,81646
2025-02-26 01:07:03.850337,sleep,10.06044,0.332794,1.82917,-0.054358,0.022383,-0.014922,81654
2025-02-26 01:07:03.850337,sleep,10.04368,0.347159,1.867477,-0.053292,0.023715,-0.01359,81645
2025-02-26 01:07:03.850337,sleep,10.05565,0.363919,1.831564,-0.052493,0.027179,-0.01359,81639
2025-02-26 01:07:03.850337,sleep,10.05804,0.337582,1.82917,-0.05276,0.025314,-0.014123,81636
2025-02-26 01:07:03.850337,sleep,10.03889,0.344765,1.869871,-0.05276,0.023182,-0.014655,81551
2025-02-26 01:07:03.850337,sleep,10.05086,0.347159,1.84593,-0.053559,0.023715,-0.014655,81474
2025-02-26 01:07:03.850337,sleep,10.05325,0.328006,1.850718,-0.053292,0.023449,-0.014123,81487
2025-02-26 01:07:03.850337,sleep,10.04368,0.332794,1.836353,-0.052493,0.022383,-0.014922,81457
2025-02-26 01:07:03.850337,sleep,10.05565,0.344765,1.824382,-0.053559,0.023982,-0.014922,81478
2025-02-26 01:07:03.850337,sleep,10.06283,0.349553,1.850718,-0.05276,0.023982,-0.014922,81427
2025-02-26 01:07:03.850337,sleep,10.05804,0.335188,1.82917,-0.053559,0.023715,-0.013856,81410
2025-02-26 01:07:03.850337,sleep,10.04128,0.347159,1.82917,-0.053559,0.022116,-0.014655,81358
2025-02-26 01:07:03.850337,sleep,10.05086,0.351948,1.824382,-0.054358,0.022649,-0.014123,81340
2025-02-26 01:07:03.850337,sleep,10.0341,0.373495,1.843535,-0.053026,0.022916,-0.014922,81320
2025-02-26 01:07:03.850337,sleep,10.02931,0.335188,1.817199,-0.054092,0.023449,-0.014123,81289
2025-02-26 01:07:03.850337,sleep,10.04607,0.337582,1.831564,-0.054358,0.023715,-0.014655,81276
2025-02-26 01:07:03.850337,sleep,10.05086,0.337582,1.821988,-0.053825,0.023449,-0.014123,81296
2025-02-26 01:07:03.850337,sleep,10.04368,0.339977,1.817199,-0.053292,0.023449,-0.014123,81304
2025-02-26 01:07:03.850337,sleep,10.04128,0.349553,1.850718,-0.054092,0.022116,-0.01359,81321
2025-02-26 01:07:03.850337,sleep,10.03889,0.342371,1.850718,-0.054358,0.021317,-0.01359,81324
2025-02-26 01:07:03.850337,sleep,10.04368,0.349553,1.831564,-0.054358,0.022383,-0.014123,81319
2025-02-26 01:07:03.850337,sleep,10.04846,0.332794,1.862689,-0.053825,0.022383,-0.015188,81254
2025-02-26 01:07:03.850337,sleep,10.05325,0.342371,1.862689,-0.054092,0.024515,-0.014922,81281
2025-02-26 01:07:03.850337,sleep,10.02692,0.349553,1.843535,-0.053825,0.023182,-0.015455,81288
2025-02-26 01:07:03.850337,sleep,10.0317,0.356736,1.836353,-0.054092,0.023982,-0.014123,81319
2025-02-26 01:07:03.850337,sleep,10.04368,0.339977,1.848324,-0.053026,0.023982,-0.014922,81321
2025-02-26 01:07:03.850337,sleep,10.05086,0.347159,1.838747,-0.053292,0.024781,-0.013856,81263
2025-02-26 01:07:03.850337,sleep,10.05325,0.3304,1.836353,-0.053292,0.023982,-0.014389,81241
2025-02-26 01:07:03.850337,sleep,10.03649,0.344765,1.848324,-0.054625,0.023182,-0.014922,81148
2025-02-26 01:07:03.850337,sleep,10.04128,0.361524,1.833959,-0.054358,0.023715,-0.014655,81126
2025-02-26 01:07:03.850337,sleep,10.05565,0.344765,1.833959,-0.053559,0.024515,-0.014922,81130
2025-02-26 01:07:03.850337,sleep,10.06522,0.349553,1.860295,-0.053825,0.023715,-0.014922,81179
2025-02-26 01:07:03.850337,sleep,10.0317,0.349553,1.850718,-0.054358,0.023715,-0.014655,81202
2025-02-26 01:07:03.850337,sleep,10.04846,0.361524,1.838747,-0.053026,0.023982,-0.014922,81105
2025-02-26 01:07:03.850337,sleep,10.05804,0.339977,1.821988,-0.053292,0.023449,-0.015988,81082
2025-02-26 01:07:03.850337,sleep,10.04607,0.332794,1.848324,-0.053825,0.022916,-0.015455,81067
2025-02-26 01:07:03.850337,sleep,10.05086,0.356736,1.84593,-0.054092,0.023449,-0.015188,81040
2025-02-26 01:07:03.850337,sleep,10.04128,0.366313,1.841141,-0.053559,0.023715,-0.015188,81007
2025-02-26 01:07:03.850337,sleep,10.05565,0.354342,1.87466,-0.052227,0.021317,-0.015188,80898
2025-02-26 01:07:03.850337,sleep,10.04128,0.356736,1.850718,-0.050361,0.015455,-0.01732,80765
2025-02-26 01:07:03.850337,sleep,10.05565,0.332794,1.826776,-0.049296,0.028778,-0.014123,80819
2025-02-26 01:07:03.850337,sleep,10.05086,0.373495,1.836353,-0.052493,0.026646,-0.01279,80890
2025-02-26 01:07:03.850337,sleep,10.05565,0.339977,1.838747,-0.053825,0.021051,-0.014123,80892
2025-02-26 01:07:03.850337,sleep,10.0341,0.335188,1.814805,-0.054092,0.02185,-0.015721,80883
2025-02-26 01:07:03.850337,sleep,10.06283,0.339977,1.82917,-0.053559,0.023715,-0.014123,80818
2025-02-26 01:07:03.850337,sleep,10.04846,0.356736,1.833959,-0.053026,0.024515,-0.015188,80844
2025-02-26 01:07:03.850337,sleep,10.05565,0.344765,1.814805,-0.053825,0.025314,-0.014389,80891
2025-02-26 01:07:03.850337,sleep,10.05325,0.349553,1.80044,-0.054891,0.022383,-0.014922,80914
2025-02-26 01:07:03.850337,sleep,10.04368,0.368707,1.821988,-0.054358,0.019452,-0.015455,80889
2025-02-26 01:07:03.850337,sleep,10.05565,0.347159,1.826776,-0.054625,0.023449,-0.014922,80880
2025-02-26 01:07:03.850337,sleep,10.04846,0.35913,1.872266,-0.055158,0.02185,-0.015721,80818
2025-02-26 01:07:03.850337,sleep,10.04846,0.368707,1.819593,-0.055158,0.022383,-0.014655,80761
2025-02-26 01:07:03.850337,sleep,10.05565,0.349553,1.812411,-0.055691,0.024248,-0.014123,80739
2025-02-26 01:07:03.850337,sleep,10.03649,0.356736,1.833959,-0.054891,0.024248,-0.014389,80694
2025-02-26 01:07:03.850337,sleep,10.01495,0.347159,1.807622,-0.055158,0.021583,-0.01359,80660
2025-02-26 01:07:03.850337,sleep,10.02452,0.351948,1.841141,-0.054358,0.023182,-0.014655,80551
2025-02-26 01:07:03.850337,sleep,10.05086,0.354342,1.814805,-0.054891,0.025047,-0.014389,80515
2025-02-26 01:07:03.850337,sleep,10.05086,0.347159,1.843535,-0.055424,0.023182,-0.014655,80495
2025-02-26 01:07:03.850337,sleep,10.04368,0.363919,1.826776,-0.054625,0.024515,-0.015188,80471
2025-02-26 01:07:03.850337,sleep,10.05565,0.342371,1.817199,-0.054891,0.024781,-0.015188,80477
2025-02-26 01:07:03.850337,sleep,10.03889,0.356736,1.810017,-0.055158,0.025047,-0.015188,80480
2025-02-26 01:07:03.850337,sleep,10.05086,0.344765,1.833959,-0.055158,0.022916,-0.01359,80448
2025-02-26 01:07:03.850337,sleep,10.02931,0.339977,1.826776,-0.054625,0.023449,-0.014922,80471
2025-02-26 01:07:03.850337,sleep,10.0317,0.337582,1.833959,-0.054891,0.028778,-0.014123,80542
2025-02-26 01:07:03.850337,sleep,10.04128,0.332794,1.855506,-0.055158,0.024248,-0.014389,80582
2025-02-26 01:07:03.850337,sleep,10.05804,0.349553,1.831564,-0.055158,0.021583,-0.015455,80568
2025-02-26 01:07:03.850337,sleep,10.05565,0.337582,1.824382,-0.055158,0.023982,-0.014655,80534
2025-02-26 01:07:03.850337,sleep,10.04607,0.354342,1.84593,-0.055424,0.024515,-0.014655,80544
2025-02-26 01:07:03.850337,sleep,10.05804,0.356736,1.836353,-0.055158,0.024515,-0.013856,80646
2025-02-26 01:07:03.850337,sleep,10.06762,0.361524,1.831564,-0.055424,0.024781,-0.014655,80646
2025-02-26 01:07:03.850337,sleep,10.05086,0.339977,1.826776,-0.054625,0.025847,-0.013323,80725
2025-02-26 01:07:03.850337,sleep,10.03889,0.347159,1.841141,-0.055691,0.024515,-0.01359,80719
2025-02-26 01:07:03.850337,sleep,10.04607,0.354342,1.84593,-0.055158,0.024515,-0.01359,80691
2025-02-26 01:07:03.850337,sleep,10.04846,0.356736,1.853112,-0.055158,0.025314,-0.014655,80650
2025-02-26 01:07:03.850337,sleep,10.04607,0.349553,1.841141,-0.055691,0.023982,-0.014389,80640
2025-02-26 01:07:03.850337,sleep,10.03889,0.347159,1.843535,-0.055158,0.023982,-0.014922,80679
2025-02-26 01:07:03.850337,sleep,10.05325,0.354342,1.833959,-0.055957,0.023982,-0.014389,80734
2025-02-26 01:07:03.850337,sleep,10.03649,0.35913,1.841141,-0.055957,0.023449,-0.014389,80751
2025-02-26 01:07:03.850337,sleep,10.05325,0.344765,1.810017,-0.055158,0.023982,-0.014389,80714
2025-02-26 01:07:03.850337,sleep,10.05804,0.344765,1.843535,-0.054358,0.023715,-0.014922,80695
2025-02-26 01:07:03.850337,sleep,10.0341,0.342371,1.819593,-0.055957,0.024248,-0.014655,80730
2025-02-26 01:07:03.850337,sleep,10.04607,0.354342,1.848324,-0.054891,0.023982,-0.014389,80713
2025-02-26 01:07:03.850337,sleep,10.0341,0.332794,1.821988,-0.055424,0.023449,-0.014655,80686
2025-02-26 01:07:03.850337,sleep,10.04607,0.344765,1.843535,-0.055424,0.023982,-0.014655,80711
2025-02-26 01:07:03.850337,sleep,10.05565,0.335188,1.826776,-0.054891,0.024248,-0.015188,80732
2025-02-26 01:07:03.850337,sleep,10.0341,0.335188,1.843535,-0.054891,0.024781,-0.014389,80757
2025-02-26 01:07:03.850337,sleep,10.04846,0.337582,1.843535,-0.055691,0.023715,-0.015455,80806
2025-02-26 01:07:03.850337,sleep,10.04128,0.356736,1.814805,-0.054625,0.024515,-0.014922,80842
2025-02-26 01:07:03.850337,sleep,10.05086,0.335188,1.843535,-0.054891,0.024781,-0.014655,80732
2025-02-26 01:07:03.850337,sleep,10.02931,0.344765,1.82917,-0.055158,0.023715,-0.013323,80843
2025-02-26 01:07:03.850337,sleep,10.0317,0.342371,1.802834,-0.054358,0.025314,-0.014123,80851
2025-02-26 01:07:03.850337,sleep,10.02213,0.339977,1.824382,-0.055424,0.023982,-0.013856,80920
2025-02-26 01:07:03.850337,sleep,10.04846,0.335188,1.833959,-0.055158,0.023982,-0.013856,80983
2025-02-26 01:07:03.850337,sleep,10.03649,0.361524,1.841141,-0.054092,0.024515,-0.014123,81007
2025-02-26 01:07:03.850337,sleep,10.04368,0.361524,1.860295,-0.054891,0.024515,-0.014655,80994
2025-02-26 01:07:03.850337,sleep,10.04846,0.354342,1.848324,-0.055424,0.025047,-0.014389,80994
2025-02-26 01:07:03.850337,sleep,10.03649,0.349553,1.826776,-0.055424,0.024248,-0.014655,80924
2025-02-26 01:07:03.850337,sleep,10.04607,0.351948,1.833959,-0.054625,0.024248,-0.015188,80918
2025-02-26 01:07:03.850337,sleep,10.04128,0.344765,1.836353,-0.055424,0.023449,-0.014123,80978
2025-02-26 01:07:03.850337,sleep,10.05325,0.339977,1.84593,-0.054891,0.023715,-0.014655,80996
2025-02-26 01:07:03.850337,sleep,10.0341,0.344765,1.831564,-0.054625,0.024248,-0.015188,81046
2025-02-26 01:07:03.850337,sleep,10.03649,0.344765,1.821988,-0.054891,0.023982,-0.014389,81085
2025-02-26 01:07:03.850337,sleep,10.06522,0.344765,1.821988,-0.054092,0.023182,-0.015188,81077
2025-02-26 01:07:03.850337,sleep,10.06762,0.349553,1.819593,-0.055691,0.024248,-0.014655,81011
2025-02-26 01:07:03.850337,sleep,10.0341,0.356736,1.814805,-0.054625,0.024515,-0.014655,81001
2025-02-26 01:07:03.850337,sleep,10.04846,0.335188,1.826776,-0.054625,0.025047,-0.014655,81029
2025-02-26 01:07:03.850337,sleep,10.04368,0.3304,1.805228,-0.055957,0.024248,-0.014655,81003
2025-02-26 01:07:03.850337,sleep,10.05565,0.337582,1.82917,-0.054891,0.024781,-0.015721,81031
2025-02-26 01:07:03.850337,sleep,10.04607,0.351948,1.831564,-0.055691,0.025047,-0.014655,81052
2025-02-26 01:07:03.850337,sleep,10.07241,0.349553,1.843535,-0.055158,0.023449,-0.015188,81084
2025-02-26 01:07:03.852346,sleep,10.05804,0.366313,1.843535,-0.055691,0.021583,-0.014655,81132
2025-02-26 01:07:03.852346,sleep,10.02213,0.356736,1.819593,-0.054625,0.025047,-0.014123,81126
2025-02-26 01:07:03.852346,sleep,10.04607,0.342371,1.853112,-0.054092,0.024781,-0.013856,81165
2025-02-26 01:07:03.852346,sleep,10.02692,0.356736,1.826776,-0.054092,0.019718,-0.015455,81111
2025-02-26 01:07:03.852346,sleep,10.04128,0.354342,1.819593,-0.054625,0.023449,-0.014655,81173
2025-02-26 01:07:03.852346,sleep,10.05086,0.347159,1.838747,-0.054625,0.024515,-0.014123,81247
2025-02-26 01:07:03.852346,sleep,10.05804,0.351948,1.843535,-0.054625,0.023449,-0.014655,81261
2025-02-26 01:07:03.852346,sleep,10.05325,0.335188,1.836353,-0.055424,0.022649,-0.015188,81265
2025-02-26 01:07:03.852346,sleep,10.02213,0.337582,1.848324,-0.055158,0.022649,-0.014922,81144
2025-02-26 01:07:03.852346,sleep,10.01973,0.354342,1.810017,-0.054891,0.022649,-0.014922,81037
2025-02-26 01:07:03.852346,sleep,10.04607,0.349553,1.831564,-0.054891,0.023449,-0.014123,80988
2025-02-26 01:07:03.852346,sleep,10.06283,0.354342,1.810017,-0.055158,0.023715,-0.014389,80949
2025-02-26 01:07:03.852346,sleep,10.03889,0.349553,1.84593,-0.055957,0.025047,-0.014389,80971
2025-02-26 01:07:03.852346,sleep,10.04368,0.361524,1.848324,-0.054891,0.023715,-0.014123,80983
2025-02-26 01:07:03.852346,sleep,10.04128,0.349553,1.850718,-0.055691,0.023715,-0.014655,81006
2025-02-26 01:07:03.852346,sleep,10.02692,0.351948,1.817199,-0.054891,0.022649,-0.015188,80951
2025-02-26 01:07:03.852346,sleep,10.05325,0.344765,1.862689,-0.054625,0.022916,-0.014123,80949
2025-02-26 01:07:03.852346,sleep,10.04846,0.356736,1.853112,-0.055691,0.022916,-0.014655,80919
2025-02-26 01:07:03.852346,sleep,10.02931,0.378284,1.84593,-0.055424,0.025847,-0.014123,80919
2025-02-26 01:07:03.852346,sleep,10.0317,0.332794,1.853112,-0.055424,0.023982,-0.013856,80903
2025-02-26 01:07:03.852346,sleep,10.0341,0.344765,1.843535,-0.054358,0.020251,-0.014655,80860
2025-02-26 01:07:03.852346,sleep,10.04368,0.342371,1.84593,-0.055957,0.022383,-0.014123,80854
2025-02-26 01:07:03.852346,sleep,10.04846,0.332794,1.869871,-0.054625,0.022383,-0.014389,80948
2025-02-26 01:07:03.852346,sleep,10.06283,0.342371,1.831564,-0.054891,0.024515,-0.015188,80970
2025-02-26 01:07:03.852346,sleep,10.06522,0.347159,1.853112,-0.054891,0.023982,-0.013856,80932
2025-02-26 01:07:03.852346,sleep,10.05325,0.328006,1.824382,-0.054625,0.023982,-0.013856,80898
2025-02-26 01:07:03.852346,sleep,10.0341,0.349553,1.824382,-0.054625,0.022649,-0.015188,80916
2025-02-26 01:07:03.852346,sleep,10.04128,0.349553,1.824382,-0.055158,0.022916,-0.015455,80880
2025-02-26 01:07:03.852346,sleep,10.03889,0.332794,1.836353,-0.054891,0.023715,-0.015455,80856
2025-02-26 01:07:03.852346,sleep,10.04846,0.347159,1.87466,-0.054891,0.022649,-0.015455,80805
2025-02-26 01:07:03.852346,sleep,10.06283,0.323217,1.853112,-0.054358,0.023182,-0.015188,80824
2025-02-26 01:07:03.852346,sleep,10.0317,0.35913,1.82917,-0.055158,0.022916,-0.015455,80786
2025-02-26 01:07:03.852346,sleep,10.05086,0.349553,1.841141,-0.054625,0.021583,-0.014389,80832
2025-02-26 01:07:03.852346,sleep,10.05325,0.342371,1.817199,-0.055691,0.022916,-0.014123,80897
2025-02-26 01:07:03.852346,sleep,10.04128,0.347159,1.826776,-0.054625,0.022383,-0.014655,80918
2025-02-26 01:07:03.852346,sleep,10.04128,0.3304,1.781286,-0.054891,0.023449,-0.015188,80902
2025-02-26 01:07:03.852346,sleep,10.02931,0.342371,1.831564,-0.055158,0.024248,-0.014655,80877
2025-02-26 01:07:03.852346,sleep,10.04368,0.354342,1.841141,-0.054891,0.024781,-0.013856,80899
2025-02-26 01:07:03.852346,sleep,10.05804,0.342371,1.833959,-0.055158,0.023715,-0.014123,81005
2025-02-26 01:07:03.852346,sleep,10.05325,0.337582,1.843535,-0.055158,0.022116,-0.014655,81012
2025-02-26 01:07:03.852346,sleep,10.0341,0.344765,1.831564,-0.055424,0.022116,-0.014922,80995
2025-02-26 01:07:03.852346,sleep,10.05565,0.335188,1.857901,-0.053825,0.022383,-0.014922,80944
2025-02-26 01:07:03.852346,sleep,10.05086,0.354342,1.833959,-0.054891,0.02185,-0.014123,80923
2025-02-26 01:07:03.852346,sleep,10.04128,0.337582,1.84593,-0.054358,0.022649,-0.01359,80860
2025-02-26 01:07:03.852346,sleep,10.04368,0.354342,1.84593,-0.054625,0.024248,-0.014922,80866
2025-02-26 01:07:03.852346,sleep,10.04128,0.361524,1.82917,-0.054891,0.022916,-0.015188,80879
2025-02-26 01:07:03.852346,sleep,10.06283,0.356736,1.84593,-0.054891,0.023715,-0.014389,80913
2025-02-26 01:07:03.852346,sleep,10.03649,0.356736,1.848324,-0.054358,0.023182,-0.013856,80922
2025-02-26 01:07:03.852346,sleep,10.04846,0.347159,1.853112,-0.055158,0.023715,-0.014389,80851
2025-02-26 01:07:03.852346,sleep,10.06044,0.342371,1.831564,-0.055158,0.023449,-0.014389,80815
2025-02-26 01:07:03.852346,sleep,10.0772,0.354342,1.841141,-0.055158,0.023449,-0.014389,80817
2025-02-26 01:07:03.852346,sleep,10.0341,0.354342,1.826776,-0.055158,0.023715,-0.014655,80841
2025-02-26 01:07:03.852346,sleep,10.04607,0.335188,1.836353,-0.054625,0.023182,-0.015721,80807
2025-02-26 01:07:03.852346,sleep,10.05325,0.361524,1.821988,-0.055158,0.022916,-0.014922,80816
2025-02-26 01:07:03.852346,sleep,10.05086,0.368707,1.850718,-0.055424,0.022916,-0.014655,80810
2025-02-26 01:07:03.852346,sleep,10.05086,0.371101,1.884237,-0.055158,0.022116,-0.014123,80839
2025-02-26 01:07:03.852346,sleep,10.0341,0.392649,1.831564,-0.053825,0.022116,-0.014922,80859
2025-02-26 01:07:03.852346,sleep,10.03649,0.35913,1.82917,-0.055158,0.021317,-0.014123,80840
2025-02-26 01:07:03.852346,sleep,10.05804,0.363919,1.857901,-0.054358,0.022649,-0.014389,80848
2025-02-26 01:07:03.852346,sleep,10.07001,0.347159,1.824382,-0.055691,0.022916,-0.015988,80837
2025-02-26 01:07:03.852346,sleep,10.05804,0.342371,1.826776,-0.054891,0.023715,-0.015721,80872
2025-02-26 01:07:03.852346,sleep,10.0341,0.363919,1.84593,-0.055691,0.022916,-0.014922,80904
2025-02-26 01:07:03.852346,sleep,10.06762,0.347159,1.855506,-0.054358,0.023715,-0.014123,80901
2025-02-26 01:07:03.852346,sleep,10.03889,0.354342,1.831564,-0.054358,0.021317,-0.014922,80868
2025-02-26 01:07:03.852346,sleep,10.05325,0.366313,1.821988,-0.055158,0.022649,-0.015455,80815
2025-02-26 01:07:03.852346,sleep,10.05086,0.349553,1.838747,-0.055957,0.025047,-0.014123,80776
2025-02-26 01:07:03.852346,sleep,10.06044,0.349553,1.80044,-0.055158,0.021051,-0.014655,80730
2025-02-26 01:07:03.852346,sleep,10.02692,0.354342,1.833959,-0.054625,0.018652,-0.015455,80717
2025-02-26 01:07:03.852346,sleep,10.04368,0.339977,1.814805,-0.054891,0.021583,-0.015721,80744
2025-02-26 01:07:03.852346,sleep,10.03889,0.351948,1.802834,-0.055158,0.023449,-0.014922,80739
2025-02-26 01:07:03.852346,sleep,10.03889,0.323217,1.824382,-0.054891,0.021317,-0.015721,80661
2025-02-26 01:07:03.852346,sleep,10.03889,0.349553,1.853112,-0.055957,0.022116,-0.014123,80568
2025-02-26 01:07:03.852346,sleep,10.05325,0.356736,1.836353,-0.054891,0.02185,-0.015188,80653
2025-02-26 01:07:03.852346,sleep,10.06283,0.342371,1.836353,-0.054891,0.02185,-0.015188,80454
2025-02-26 01:07:03.852346,sleep,10.06522,0.342371,1.838747,-0.055158,0.022383,-0.014922,80341
2025-02-26 01:07:03.852346,sleep,10.03889,0.337582,1.860295,-0.055158,0.02185,-0.014655,80307
2025-02-26 01:07:03.852346,sleep,10.05804,0.347159,1.860295,-0.054625,0.02185,-0.014389,80295
2025-02-26 01:07:03.852346,sleep,10.05086,0.354342,1.831564,-0.055158,0.023449,-0.014655,80294
2025-02-26 01:07:03.852346,sleep,10.04607,0.356736,1.843535,-0.054358,0.022916,-0.013856,80323
2025-02-26 01:07:03.852346,sleep,10.04846,0.342371,1.833959,-0.054891,0.023715,-0.015188,80390
2025-02-26 01:07:03.852346,sleep,10.05086,0.361524,1.833959,-0.055957,0.022649,-0.014123,80362
2025-02-26 01:07:03.852346,sleep,10.05325,0.354342,1.817199,-0.055424,0.021051,-0.014922,80344
2025-02-26 01:07:03.852346,sleep,10.05565,0.361524,1.838747,-0.055158,0.025847,-0.014655,80315
2025-02-26 01:07:03.852346,sleep,10.05086,0.35913,1.838747,-0.055424,0.022649,-0.013323,80349
2025-02-26 01:07:03.852346,sleep,10.04368,0.332794,1.833959,-0.055158,0.021317,-0.014922,80397
2025-02-26 01:07:03.852346,sleep,10.05565,0.35913,1.848324,-0.054358,0.023982,-0.015188,80400
2025-02-26 01:07:03.852346,sleep,10.04368,0.337582,1.841141,-0.054891,0.022383,-0.015188,80347
2025-02-26 01:07:03.852346,sleep,10.05804,0.351948,1.836353,-0.055158,0.02185,-0.016254,80338
2025-02-26 01:07:03.852346,sleep,10.03889,0.342371,1.817199,-0.054358,0.025847,-0.014389,80255
2025-02-26 01:07:03.852346,sleep,10.06044,0.351948,1.80044,-0.055424,0.024515,-0.014655,80220
2025-02-26 01:07:03.852346,sleep,10.04846,0.361524,1.857901,-0.055158,0.022916,-0.014922,80257
2025-02-26 01:07:03.852346,sleep,10.04368,0.347159,1.850718,-0.055691,0.022916,-0.015455,80247
2025-02-26 01:07:03.852346,sleep,10.06522,0.356736,1.817199,-0.055957,0.023715,-0.014123,80277
2025-02-26 01:07:03.852346,sleep,10.04128,0.342371,1.84593,-0.054625,0.022116,-0.014655,80274
2025-02-26 01:07:03.852346,sleep,10.05086,0.349553,1.814805,-0.054625,0.024248,-0.013856,80218
2025-02-26 01:07:03.852346,sleep,10.04846,0.337582,1.817199,-0.054358,0.022383,-0.015455,80224
2025-02-26 01:07:03.852346,sleep,10.02452,0.354342,1.838747,-0.054891,0.023182,-0.014655,80199
2025-02-26 01:07:03.852346,sleep,10.05086,0.354342,1.824382,-0.054891,0.023449,-0.014922,80170
2025-02-26 01:07:03.852346,sleep,10.01973,0.351948,1.82917,-0.054358,0.024781,-0.014922,80157
2025-02-26 01:07:03.852346,sleep,10.04607,0.351948,1.843535,-0.054358,0.023982,-0.014389,80156
2025-02-26 01:07:03.852346,sleep,10.05086,0.368707,1.833959,-0.055158,0.023182,-0.014655,80199
2025-02-26 01:07:03.852346,sleep,10.04607,0.351948,1.812411,-0.053825,0.022649,-0.014655,80231
2025-02-26 01:07:03.852346,sleep,10.05086,0.356736,1.84593,-0.054625,0.02185,-0.014123,80218
2025-02-26 01:07:03.852346,sleep,10.05086,0.35913,1.814805,-0.054358,0.022649,-0.014655,80257
2025-02-26 01:07:03.852346,sleep,10.03889,0.342371,1.812411,-0.055424,0.023715,-0.013856,80246
2025-02-26 01:07:03.852346,sleep,10.04128,0.337582,1.819593,-0.053825,0.022649,-0.014123,80233
2025-02-26 01:07:03.852346,sleep,10.05325,0.349553,1.824382,-0.054891,0.023449,-0.014123,80267
2025-02-26 01:07:03.852346,sleep,10.06283,0.344765,1.824382,-0.054092,0.024515,-0.014655,80298
2025-02-26 01:07:03.852346,sleep,10.04368,0.351948,1.781286,-0.054358,0.024515,-0.01359,80295
2025-02-26 01:07:03.852346,sleep,10.03889,0.337582,1.824382,-0.054625,0.023182,-0.014922,80279
2025-02-26 01:07:03.852346,sleep,10.05086,0.356736,1.848324,-0.054358,0.023182,-0.014922,80241
2025-02-26 01:07:03.852346,sleep,10.05804,0.349553,1.841141,-0.053559,0.023982,-0.014922,80178
2025-02-26 01:07:03.852346,sleep,10.04368,0.363919,1.833959,-0.054358,0.023449,-0.013856,80163
2025-02-26 01:07:03.852346,sleep,10.03649,0.325611,1.805228,-0.054092,0.023449,-0.014389,80198
2025-02-26 01:07:03.852346,sleep,10.04368,0.347159,1.817199,-0.053559,0.024248,-0.014123,80216
2025-02-26 01:07:03.852346,sleep,10.05086,0.347159,1.843535,-0.052493,0.024248,-0.015188,80223
2025-02-26 01:07:03.852346,sleep,10.0341,0.363919,1.833959,-0.054358,0.024248,-0.014389,80187
2025-02-26 01:07:03.852346,sleep,10.0341,0.361524,1.841141,-0.054358,0.023982,-0.014389,80154
2025-02-26 01:07:03.852346,sleep,10.03649,0.342371,1.841141,-0.054358,0.022649,-0.014655,80165
2025-02-26 01:07:03.852346,sleep,10.05565,0.349553,1.831564,-0.053825,0.023715,-0.014922,80127
2025-02-26 01:07:03.852346,sleep,10.04846,0.332794,1.857901,-0.054625,0.022649,-0.014655,80086
2025-02-26 01:07:03.852346,sleep,10.0341,0.344765,1.819593,-0.054625,0.023982,-0.015188,80103
