Timestamp,Label,AccelX,AccelY,AccelZ,GyroX,GyroY,GyroZ,IR
2025-02-26 01:52:57.695763,sleep,9.706094,1.606509,-1.177947,-0.06102,0.087666,-0.01279,60460
2025-02-26 01:52:57.695763,sleep,9.742006,1.601721,-1.074997,-0.048763,0.034374,-0.015988,60544
2025-02-26 01:52:57.695763,sleep,9.694122,1.623269,-1.189918,-0.040769,-0.022649,-0.019185,60675
2025-02-26 01:52:57.695763,sleep,9.691729,1.613692,-1.285686,-0.052493,-0.021051,-0.017853,60871
2025-02-26 01:52:57.695763,sleep,9.68694,1.584962,-1.328782,-0.057023,0.017587,-0.017853,60434
2025-02-26 01:52:57.695763,sleep,9.689334,1.596933,-1.170765,-0.060487,0.010925,-0.019452,61355
2025-02-26 01:52:57.695763,sleep,9.67018,1.623269,-1.254562,-0.058089,-0.017587,-0.013323,61901
2025-02-26 01:52:57.695763,sleep,9.677363,1.623269,-1.323994,-0.063685,0.001599,-0.009326,62342
2025-02-26 01:52:57.695763,sleep,9.684546,1.661576,-1.292869,-0.078873,0.014123,-0.011458,62657
2025-02-26 01:52:57.695763,sleep,9.722853,1.661576,-1.158794,-0.076475,0.00826,-0.014123,62911
2025-02-26 01:52:57.695763,sleep,9.665392,1.687912,-1.199495,-0.060221,0.000799,-0.015455,63025
2025-02-26 01:52:57.695763,sleep,9.646238,1.644817,-1.295263,-0.05649,0.016254,-0.007727,63234
2025-02-26 01:52:57.695763,sleep,9.68694,1.623269,-1.295263,-0.070346,0.039703,-0.004263,63665
2025-02-26 01:52:57.695763,sleep,9.758766,1.616086,-1.156399,-0.072211,0.023449,-0.010392,63976
2025-02-26 01:52:57.695763,sleep,9.715671,1.632846,-1.170765,-0.057023,-0.005063,-0.017853,64041
2025-02-26 01:52:57.695763,sleep,9.624691,1.628057,-1.323994,-0.052227,-0.009593,-0.013057,64206
2025-02-26 01:52:57.695763,sleep,9.624691,1.601721,-1.352724,-0.063951,0.019985,-0.00373,64641
2025-02-26 01:52:57.695763,sleep,9.698911,1.620875,-1.30484,-0.072211,0.049562,-0.001332,65142
2025-02-26 01:52:57.695763,sleep,9.710882,1.616086,-1.204283,-0.078606,0.021583,-0.00826,65720
2025-02-26 01:52:57.695763,sleep,9.68694,1.661576,-1.211466,-0.074876,-0.020518,-0.011458,66073
2025-02-26 01:52:57.695763,sleep,9.660604,1.651999,-1.261744,-0.063685,-0.008793,-0.011191,66402
2025-02-26 01:52:57.695763,sleep,9.684546,1.625663,-1.300052,-0.059155,0.016254,-0.008527,66707
2025-02-26 01:52:57.695763,sleep,9.662998,1.616086,-1.326388,-0.067149,0.015455,-0.00906,67161
2025-02-26 01:52:57.695763,sleep,9.710882,1.56102,-1.233014,-0.066882,-0.002665,-0.010658,67728
2025-02-26 01:52:57.695763,sleep,9.691729,1.656788,-1.268927,-0.057822,0.001332,-0.013856,68064
2025-02-26 01:52:57.695763,sleep,9.674969,1.668759,-1.302446,-0.06475,0.000266,-0.014389,68245
2025-02-26 01:52:57.695763,sleep,9.636662,1.642422,-1.30484,-0.06475,0.018119,-0.00826,68542
2025-02-26 01:52:57.695763,sleep,9.682152,1.594538,-1.268927,-0.062352,0.031176,-0.006928,69078
2025-02-26 01:52:57.695763,sleep,9.718064,1.594538,-1.266533,-0.060487,0.014655,-0.010392,69531
2025-02-26 01:52:57.695763,sleep,9.653421,1.647211,-1.312023,-0.059954,-0.003464,-0.01279,69817
2025-02-26 01:52:57.695763,sleep,9.646238,1.651999,-1.35033,-0.063152,0.013856,-0.008527,69952
2025-02-26 01:52:57.695763,sleep,9.646238,1.616086,-1.309628,-0.064217,0.03544,-0.007994,70038
2025-02-26 01:52:57.695763,sleep,9.660604,1.623269,-1.266533,-0.066083,0.03464,-0.005862,70272
2025-02-26 01:52:57.695763,sleep,9.703699,1.63524,-1.256956,-0.067948,0.019985,-0.001599,70594
2025-02-26 01:52:57.695763,sleep,9.648633,1.628057,-1.374272,-0.070613,0.03011,0.000266,70717
2025-02-26 01:52:57.695763,sleep,9.631873,1.628057,-1.347936,-0.075675,0.054358,0.003997,70715
2025-02-26 01:52:57.695763,sleep,9.691729,1.604115,-1.278504,-0.084735,0.053825,0.006928,70826
2025-02-26 01:52:57.695763,sleep,9.749189,1.565808,-1.127669,-0.078873,0.041035,-0.001066,71108
2025-02-26 01:52:57.695763,sleep,9.746795,1.604115,-1.101333,-0.05196,0.017853,-0.015721,71478
2025-02-26 01:52:57.695763,sleep,9.73243,1.592144,-1.146823,-0.026113,-0.022116,-0.02558,71723
2025-02-26 01:52:57.695763,sleep,9.725247,1.599327,-1.347936,-0.023715,-0.043433,-0.03464,71694
2025-02-26 01:52:57.695763,sleep,9.598354,1.604115,-1.462857,-0.043433,-0.037038,-0.032242,71613
2025-02-26 01:52:57.695763,sleep,9.588778,1.604115,-1.405396,-0.062352,-0.000799,-0.021051,71651
2025-02-26 01:52:57.695763,sleep,9.648633,1.58975,-1.300052,-0.069014,0.021051,-0.014123,71885
2025-02-26 01:52:57.695763,sleep,9.627085,1.632846,-1.307234,-0.065283,0.023182,-0.006662,72168
2025-02-26 01:52:57.695763,sleep,9.665392,1.675941,-1.345541,-0.07008,0.031176,-0.002931,72470
2025-02-26 01:52:57.695763,sleep,9.660604,1.644817,-1.357512,-0.076475,0.032775,-0.003198,72828
2025-02-26 01:52:57.695763,sleep,9.636662,1.623269,-1.295263,-0.077807,0.034374,0.001332,73051
2025-02-26 01:52:57.695763,sleep,9.660604,1.623269,-1.328782,-0.071678,0.06102,0.007994,73289
2025-02-26 01:52:57.695763,sleep,9.710882,1.606509,-1.312023,-0.07834,0.066616,0.005329,73689
2025-02-26 01:52:57.695763,sleep,9.715671,1.604115,-1.206678,-0.07834,0.049562,-0.000799,74164
2025-02-26 01:52:57.695763,sleep,9.65821,1.596933,-1.197101,-0.060753,0.034107,-0.002931,74660
2025-02-26 01:52:57.695763,sleep,9.698911,1.594538,-1.276109,-0.053825,0.027979,-0.002398,73289
2025-02-26 01:52:57.695763,sleep,9.730036,1.594538,-1.300052,-0.056224,0.020518,-0.009326,75503
2025-02-26 01:52:57.695763,sleep,9.691729,1.606509,-1.314417,-0.059688,0.013057,-0.014389,75781
2025-02-26 01:52:57.695763,sleep,9.634268,1.601721,-1.297657,-0.062885,0.014123,-0.009593,76053
2025-02-26 01:52:57.695763,sleep,9.682152,1.587356,-1.268927,-0.062352,0.03011,-0.00826,76383
2025-02-26 01:52:57.695763,sleep,9.715671,1.58975,-1.266533,-0.060753,0.043433,-0.009326,76725
2025-02-26 01:52:57.695763,sleep,9.684546,1.599327,-1.300052,-0.063951,0.028511,-0.011191,76957
2025-02-26 01:52:57.695763,sleep,9.672575,1.608904,-1.254562,-0.065017,0.010925,-0.014123,77053
2025-02-26 01:52:57.695763,sleep,9.667787,1.611298,-1.283292,-0.06102,0.023715,-0.01359,76986
2025-02-26 01:52:57.695763,sleep,9.662998,1.596933,-1.261744,-0.058622,0.039969,-0.013057,76816
2025-02-26 01:52:57.695763,sleep,9.653421,1.613692,-1.307234,-0.059688,0.047164,-0.006928,76806
2025-02-26 01:52:57.695763,sleep,9.694122,1.611298,-1.345541,-0.07008,0.052493,-0.001066,76923
2025-02-26 01:52:57.695763,sleep,9.667787,1.608904,-1.321599,-0.084202,0.06102,0.000799,77110
2025-02-26 01:52:57.695763,sleep,9.701305,1.584962,-1.21386,-0.085801,0.064484,-0.001865,77239
2025-02-26 01:52:57.695763,sleep,9.742006,1.582567,-1.156399,-0.079139,0.045299,-0.006395,77497
2025-02-26 01:52:57.695763,sleep,9.725247,1.599327,-1.158794,-0.06555,0.015188,-0.014389,77700
2025-02-26 01:52:57.695763,sleep,9.65821,1.592144,-1.199495,-0.05649,-0.002665,-0.015988,77888
2025-02-26 01:52:57.695763,sleep,9.691729,1.592144,-1.283292,-0.053559,0.008793,-0.014655,77986
2025-02-26 01:52:57.695763,sleep,9.722853,1.584962,-1.237802,-0.052227,0.018386,-0.020251,77909
2025-02-26 01:52:57.695763,sleep,9.674969,1.58975,-1.197101,-0.049029,-0.006129,-0.027979,77742
2025-02-26 01:52:57.695763,sleep,9.648633,1.611298,-1.244985,-0.043167,-0.01732,-0.027712,77641
2025-02-26 01:52:57.695763,sleep,9.718064,1.601721,-1.314417,-0.040769,0.010392,-0.023182,77503
2025-02-26 01:52:57.695763,sleep,9.739613,1.587356,-1.276109,-0.041302,0.017054,-0.030643,77190
2025-02-26 01:52:57.695763,sleep,9.646238,1.608904,-1.240196,-0.044766,-0.01279,-0.037571,76704
2025-02-26 01:52:57.695763,sleep,9.634268,1.632846,-1.280898,-0.042101,-0.019452,-0.034907,76176
2025-02-26 01:52:57.695763,sleep,9.698911,1.637634,-1.23062,-0.033308,-0.003997,-0.036772,75376
2025-02-26 01:52:57.695763,sleep,9.718064,1.632846,-1.285686,-0.025047,-0.007994,-0.042368,74342
2025-02-26 01:52:57.695763,sleep,9.662998,1.656788,-1.357512,-0.030377,-0.024781,-0.039969,73396
2025-02-26 01:52:57.695763,sleep,9.677363,1.640028,-1.367089,-0.041835,-0.02638,-0.038104,72516
2025-02-26 01:52:57.695763,sleep,9.646238,1.632846,-1.276109,-0.043433,-0.013856,-0.040502,71615
2025-02-26 01:52:57.695763,sleep,9.636662,1.651999,-1.278504,-0.032508,-0.000266,-0.038104,70699
2025-02-26 01:52:57.695763,sleep,9.653421,1.637634,-1.319205,-0.028778,-0.000533,-0.030377,69848
2025-02-26 01:52:57.695763,sleep,9.682152,1.594538,-1.352724,-0.02558,0.013323,-0.03011,69036
2025-02-26 01:52:57.695763,sleep,9.684546,1.587356,-1.314417,-0.028245,0.010392,-0.032242,68384
2025-02-26 01:52:57.695763,sleep,9.605537,1.630451,-1.321599,-0.029844,-0.006662,-0.028511,68093
2025-02-26 01:52:57.695763,sleep,9.636662,1.651999,-1.391031,-0.033574,-0.001865,-0.020518,68107
2025-02-26 01:52:57.695763,sleep,9.710882,1.604115,-1.331176,-0.034907,0.004263,-0.023449,67951
2025-02-26 01:52:57.695763,sleep,9.684546,1.628057,-1.391031,-0.029577,-0.001865,-0.041302,67677
2025-02-26 01:52:57.695763,sleep,9.600749,1.666364,-1.376666,-0.038371,-0.032775,-0.035173,67390
2025-02-26 01:52:57.695763,sleep,9.730036,1.577779,-1.33357,-0.031709,-0.013057,-0.043433,67346
2025-02-26 01:52:57.695763,sleep,9.579201,1.632846,-1.493982,-0.042368,0.006928,-0.041035,67348
2025-02-26 01:52:57.695763,sleep,9.605537,1.673547,-1.412579,-0.048496,-0.004263,-0.015988,67549
2025-02-26 01:52:57.695763,sleep,9.607931,1.728614,-1.467646,-0.049029,0.03464,-0.015988,67614
2025-02-26 01:52:57.695763,sleep,9.593566,1.702277,-1.517924,-0.063152,0.035972,-0.006928,67641
2025-02-26 01:52:57.695763,sleep,9.586384,1.66397,-1.467646,-0.079672,0.051427,0.003198,67610
2025-02-26 01:52:57.695763,sleep,9.651027,1.656788,-1.393425,-0.078606,0.073011,0.006129,67629
2025-02-26 01:52:57.695763,sleep,9.655815,1.668759,-1.312023,-0.078873,0.075675,0.006395,67367
2025-02-26 01:52:57.695763,sleep,9.742006,1.766921,-1.355118,-0.070346,0.046364,-0.00453,66734
2025-02-26 01:52:57.695763,sleep,9.73243,1.802834,-1.197101,-0.052227,0.002931,-0.022916,65785
2025-02-26 01:52:57.695763,sleep,9.701305,1.675941,-1.165976,-0.027179,-0.010658,-0.033841,65030
2025-02-26 01:52:57.695763,sleep,9.588778,1.482011,-1.400608,-0.017587,-0.006928,-0.034907,64517
2025-02-26 01:52:57.695763,sleep,9.452309,1.510741,-1.549049,-0.037571,-0.000533,-0.015455,65227
2025-02-26 01:52:57.695763,sleep,9.634268,1.458069,-1.381454,-0.063951,0.041035,0.004796,67079
2025-02-26 01:52:57.695763,sleep,9.653421,1.675941,-1.422156,-0.071145,0.07381,0.00906,68389
2025-02-26 01:52:57.695763,sleep,9.739613,1.75495,-1.312023,-0.071412,0.05196,0.005862,69215
2025-02-26 01:52:57.695763,sleep,9.730036,1.690306,-1.266533,-0.053559,0.014922,-0.010658,69443
2025-02-26 01:52:57.695763,sleep,9.629479,1.649605,-1.381454,-0.045299,-0.008793,-0.018386,69545
2025-02-26 01:52:57.695763,sleep,9.588778,1.616086,-1.429338,-0.04743,0.006928,-0.010126,69961
2025-02-26 01:52:57.695763,sleep,9.662998,1.599327,-1.431733,-0.05196,0.047164,-0.007727,70369
2025-02-26 01:52:57.695763,sleep,9.672575,1.644817,-1.374272,-0.063418,0.036505,-0.013057,70635
2025-02-26 01:52:57.695763,sleep,9.682152,1.656788,-1.276109,-0.061286,0.005063,-0.01359,70776
2025-02-26 01:52:57.695763,sleep,9.624691,1.647211,-1.359907,-0.04823,0.004263,-0.015455,70836
2025-02-26 01:52:57.695763,sleep,9.639056,1.644817,-1.419762,-0.051694,0.021051,-0.011991,70893
2025-02-26 01:52:57.695763,sleep,9.627085,1.644817,-1.393425,-0.064217,0.037838,-0.009326,70975
2025-02-26 01:52:57.695763,sleep,9.583989,1.687912,-1.448492,-0.072744,0.050628,0.000266,70831
2025-02-26 01:52:57.695763,sleep,9.605537,1.771709,-1.51553,-0.096726,0.070879,0.015721,70358
2025-02-26 01:52:57.695763,sleep,9.902418,1.917756,-1.015141,-0.079406,0.050095,-0.010925,69185
2025-02-26 01:52:57.695763,sleep,9.988609,1.707066,-0.694318,0.015188,-0.03011,-0.068747,67171
2025-02-26 01:52:57.695763,sleep,9.572019,1.429338,-1.335965,0.053825,-0.137761,-0.089531,65168
2025-02-26 01:52:57.695763,sleep,9.28232,1.374272,-1.886631,-0.005329,-0.133498,-0.0429,64576
2025-02-26 01:52:57.695763,sleep,9.519346,1.49877,-1.747767,-0.069547,0.033574,-0.002398,65960
2025-02-26 01:52:57.695763,sleep,9.674969,1.580173,-1.323994,-0.065816,0.174,-0.002132,66627
2025-02-26 01:52:57.695763,sleep,9.631873,1.692701,-1.300052,-0.064217,0.098858,0.00373,67487
2025-02-26 01:52:57.695763,sleep,9.679757,1.740585,-1.343147,-0.067681,-0.005063,0.00906,68539
2025-02-26 01:52:57.695763,sleep,9.720459,1.66397,-1.37906,-0.059421,0.006928,-0.007994,69070
2025-02-26 01:52:57.695763,sleep,9.586384,1.649605,-1.386243,-0.051161,0.041568,-0.016521,69235
2025-02-26 01:52:57.695763,sleep,9.617508,1.620875,-1.417367,-0.051694,0.035706,-0.005329,69743
2025-02-26 01:52:57.695763,sleep,9.684546,1.637634,-1.462857,-0.061553,0.031443,-0.005862,70073
2025-02-26 01:52:57.695763,sleep,9.677363,1.654393,-1.355118,-0.060221,0.043433,-0.009859,70166
2025-02-26 01:52:57.695763,sleep,9.629479,1.630451,-1.374272,-0.054092,0.041835,-0.00826,70221
2025-02-26 01:52:57.695763,sleep,9.696517,1.620875,-1.386243,-0.058888,0.023449,-0.007194,70523
2025-02-26 01:52:57.695763,sleep,9.701305,1.616086,-1.314417,-0.058355,0.014123,-0.018919,70572
2025-02-26 01:52:57.695763,sleep,9.64145,1.628057,-1.319205,-0.049296,0.009326,-0.018652,70674
2025-02-26 01:52:57.695763,sleep,9.653421,1.651999,-1.400608,-0.047697,0.014123,-0.017853,70648
2025-02-26 01:52:57.695763,sleep,9.622296,1.656788,-1.381454,-0.051694,0.024515,-0.018386,70372
2025-02-26 01:52:57.695763,sleep,9.65821,1.644817,-1.383849,-0.054358,0.03464,-0.017853,69940
2025-02-26 01:52:57.695763,sleep,9.667787,1.623269,-1.340753,-0.056224,0.022649,-0.020784,69558
2025-02-26 01:52:57.695763,sleep,9.631873,1.654393,-1.338359,-0.053026,0.003464,-0.023715,69116
2025-02-26 01:52:57.695763,sleep,9.65821,1.651999,-1.400608,-0.054092,0.005329,-0.020251,68717
2025-02-26 01:52:57.695763,sleep,9.665392,1.640028,-1.388637,-0.057289,0.018119,-0.020518,68336
2025-02-26 01:52:57.695763,sleep,9.651027,1.637634,-1.345541,-0.055957,0.023182,-0.019985,67765
2025-02-26 01:52:57.695763,sleep,9.651027,1.637634,-1.362301,-0.050361,0.022916,-0.019185,67290
2025-02-26 01:52:57.695763,sleep,9.627085,1.644817,-1.352724,-0.046098,0.024248,-0.015988,66923
2025-02-26 01:52:57.695763,sleep,9.667787,1.651999,-1.376666,-0.0437,0.03544,-0.014389,66642
2025-02-26 01:52:57.695763,sleep,9.651027,1.644817,-1.352724,-0.039436,0.044766,-0.015455,66250
2025-02-26 01:52:57.695763,sleep,9.665392,1.649605,-1.376666,-0.038371,0.043433,-0.016521,65844
2025-02-26 01:52:57.695763,sleep,9.65821,1.630451,-1.39582,-0.050095,0.024515,-0.016521,65680
2025-02-26 01:52:57.695763,sleep,9.660604,1.630451,-1.345541,-0.051161,0.017054,-0.019452,65421
2025-02-26 01:52:57.695763,sleep,9.648633,1.654393,-1.326388,-0.045299,0.017587,-0.020251,66250
2025-02-26 01:52:57.695763,sleep,9.624691,1.66397,-1.391031,-0.042368,0.021583,-0.018652,64642
2025-02-26 01:52:57.695763,sleep,9.631873,1.630451,-1.391031,-0.046364,0.033841,-0.011724,64481
2025-02-26 01:52:57.695763,sleep,9.662998,1.628057,-1.340753,-0.044499,0.049562,-0.014389,64402
2025-02-26 01:52:57.695763,sleep,9.667787,1.647211,-1.355118,-0.047164,0.037305,-0.014655,64144
2025-02-26 01:52:57.695763,sleep,9.651027,1.642422,-1.381454,-0.053825,0.019718,-0.016254,63945
2025-02-26 01:52:57.695763,sleep,9.653421,1.647211,-1.331176,-0.054625,0.019452,-0.015988,63725
2025-02-26 01:52:57.695763,sleep,9.660604,1.647211,-1.331176,-0.051161,0.027712,-0.01732,63452
2025-02-26 01:52:57.695763,sleep,9.643845,1.656788,-1.364695,-0.051694,0.022383,-0.017587,63107
2025-02-26 01:52:57.695763,sleep,9.648633,1.644817,-1.369483,-0.05276,0.021051,-0.016787,62803
2025-02-26 01:52:57.695763,sleep,9.64145,1.632846,-1.35033,-0.051427,0.027446,-0.015721,62369
2025-02-26 01:52:57.695763,sleep,9.646238,1.654393,-1.367089,-0.050361,0.027446,-0.017587,61991
2025-02-26 01:52:57.695763,sleep,9.646238,1.644817,-1.35033,-0.051427,0.01732,-0.017587,61676
2025-02-26 01:52:57.695763,sleep,9.67018,1.628057,-1.338359,-0.050894,0.01359,-0.018652,61427
2025-02-26 01:52:57.695763,sleep,9.631873,1.651999,-1.383849,-0.047963,0.019185,-0.018919,61175
2025-02-26 01:52:57.695763,sleep,9.65821,1.637634,-1.381454,-0.048763,0.024781,-0.016787,61000
2025-02-26 01:52:57.695763,sleep,9.639056,1.640028,-1.391031,-0.049296,0.029044,-0.014655,60811
2025-02-26 01:52:57.695763,sleep,9.646238,1.651999,-1.362301,-0.047963,0.037305,-0.013856,60693
2025-02-26 01:52:57.695763,sleep,9.643845,1.661576,-1.362301,-0.046364,0.041302,-0.011991,60604
2025-02-26 01:52:57.695763,sleep,9.643845,1.630451,-1.374272,-0.044233,0.045032,-0.011991,60395
2025-02-26 01:52:57.695763,sleep,9.662998,1.637634,-1.345541,-0.047963,0.037571,-0.01359,60187
2025-02-26 01:52:57.695763,sleep,9.674969,1.642422,-1.352724,-0.053292,0.021051,-0.015988,60009
2025-02-26 01:52:57.695763,sleep,9.651027,1.644817,-1.345541,-0.050894,0.018652,-0.014922,59880
2025-02-26 01:52:57.695763,sleep,9.648633,1.642422,-1.367089,-0.047697,0.02638,-0.014655,59772
2025-02-26 01:52:57.695763,sleep,9.646238,1.647211,-1.400608,-0.051694,0.027712,-0.014655,59627
2025-02-26 01:52:57.695763,sleep,9.651027,1.642422,-1.355118,-0.054092,0.03011,-0.013323,59536
2025-02-26 01:52:57.695763,sleep,9.674969,1.642422,-1.362301,-0.05196,0.034907,-0.011991,59456
2025-02-26 01:52:57.695763,sleep,9.660604,1.656788,-1.355118,-0.053559,0.03091,-0.011991,59429
2025-02-26 01:52:57.695763,sleep,9.689334,1.649605,-1.331176,-0.051161,0.024781,-0.014922,59359
2025-02-26 01:52:57.695763,sleep,9.655815,1.651999,-1.371878,-0.045565,0.025314,-0.014389,59244
2025-02-26 01:52:57.695763,sleep,9.65821,1.644817,-1.371878,-0.046364,0.026113,-0.013057,59280
2025-02-26 01:52:57.695763,sleep,9.646238,1.637634,-1.371878,-0.04743,0.030643,-0.01279,59223
2025-02-26 01:52:57.695763,sleep,9.651027,1.637634,-1.355118,-0.052227,0.032775,-0.01279,59130
2025-02-26 01:52:57.695763,sleep,9.68694,1.637634,-1.340753,-0.054092,0.030643,-0.014123,58967
2025-02-26 01:52:57.695763,sleep,9.665392,1.632846,-1.319205,-0.050628,0.024515,-0.015721,58816
2025-02-26 01:52:57.695763,sleep,9.646238,1.625663,-1.367089,-0.050894,0.015188,-0.017054,58743
2025-02-26 01:52:57.695763,sleep,9.662998,1.625663,-1.359907,-0.051427,0.017587,-0.015988,58702
2025-02-26 01:52:57.695763,sleep,9.660604,1.628057,-1.338359,-0.049828,0.023715,-0.015988,58588
2025-02-26 01:52:57.695763,sleep,9.651027,1.640028,-1.367089,-0.048763,0.027712,-0.014389,58431
2025-02-26 01:52:57.695763,sleep,9.665392,1.63524,-1.355118,-0.053026,0.029844,-0.01359,58309
2025-02-26 01:52:57.695763,sleep,9.65821,1.63524,-1.340753,-0.053825,0.031709,-0.012524,58192
2025-02-26 01:52:57.695763,sleep,9.677363,1.642422,-1.340753,-0.054891,0.027179,-0.013323,58196
2025-02-26 01:52:57.695763,sleep,9.682152,1.640028,-1.338359,-0.055158,0.020784,-0.013323,58125
2025-02-26 01:52:57.695763,sleep,9.648633,1.637634,-1.359907,-0.052493,0.021583,-0.011724,58073
2025-02-26 01:52:57.695763,sleep,9.665392,1.632846,-1.347936,-0.053559,0.02638,-0.01279,58089
2025-02-26 01:52:57.695763,sleep,9.701305,1.632846,-1.326388,-0.053026,0.026113,-0.013057,58140
2025-02-26 01:52:57.695763,sleep,9.662998,1.620875,-1.302446,-0.052493,0.021583,-0.015455,58125
2025-02-26 01:52:57.695763,sleep,9.639056,1.632846,-1.362301,-0.054092,0.018919,-0.014123,58031
2025-02-26 01:52:57.695763,sleep,9.665392,1.642422,-1.343147,-0.054625,0.030377,-0.012257,58057
2025-02-26 01:52:57.695763,sleep,9.679757,1.620875,-1.345541,-0.054092,0.033308,-0.014389,57945
2025-02-26 01:52:57.695763,sleep,9.662998,1.637634,-1.323994,-0.054092,0.022916,-0.015188,57892
2025-02-26 01:52:57.695763,sleep,9.660604,1.630451,-1.35033,-0.053292,0.02185,-0.015188,57745
2025-02-26 01:52:57.695763,sleep,9.655815,1.630451,-1.321599,-0.053825,0.028511,-0.01359,57615
2025-02-26 01:52:57.695763,sleep,9.655815,1.644817,-1.33357,-0.055158,0.027446,-0.014389,57640
2025-02-26 01:52:57.695763,sleep,9.655815,1.632846,-1.312023,-0.053559,0.021583,-0.014922,57567
2025-02-26 01:52:57.695763,sleep,9.646238,1.63524,-1.359907,-0.053559,0.02185,-0.014123,57505
2025-02-26 01:52:57.695763,sleep,9.667787,1.644817,-1.316811,-0.054092,0.027979,-0.015188,57508
2025-02-26 01:52:57.695763,sleep,9.660604,1.628057,-1.321599,-0.054092,0.028511,-0.013323,57423
2025-02-26 01:52:57.695763,sleep,9.653421,1.630451,-1.355118,-0.053026,0.024515,-0.015188,57567
2025-02-26 01:52:57.695763,sleep,9.660604,1.654393,-1.352724,-0.054358,0.02558,-0.014655,57296
2025-02-26 01:52:57.695763,sleep,9.653421,1.630451,-1.316811,-0.053825,0.027446,-0.014389,57335
2025-02-26 01:52:57.695763,sleep,9.667787,1.632846,-1.359907,-0.053292,0.025314,-0.014389,57376
2025-02-26 01:52:57.695763,sleep,9.646238,1.630451,-1.33357,-0.055424,0.023715,-0.014389,57452
2025-02-26 01:52:57.695763,sleep,9.653421,1.637634,-1.321599,-0.053559,0.026646,-0.013057,57442
2025-02-26 01:52:57.695763,sleep,9.679757,1.61848,-1.314417,-0.054891,0.026113,-0.013323,57451
2025-02-26 01:52:57.695763,sleep,9.651027,1.640028,-1.314417,-0.055957,0.022383,-0.014655,57391
2025-02-26 01:52:57.695763,sleep,9.648633,1.642422,-1.323994,-0.053026,0.020251,-0.014922,57237
2025-02-26 01:52:57.695763,sleep,9.643845,1.623269,-1.328782,-0.05276,0.020518,-0.014922,57104
2025-02-26 01:52:57.695763,sleep,9.648633,1.628057,-1.359907,-0.054358,0.024248,-0.015188,57032
2025-02-26 01:52:57.695763,sleep,9.651027,1.642422,-1.331176,-0.056224,0.028245,-0.014123,57048
2025-02-26 01:52:57.695763,sleep,9.643845,1.630451,-1.314417,-0.055424,0.027446,-0.014123,57064
2025-02-26 01:52:57.695763,sleep,9.64145,1.63524,-1.340753,-0.055957,0.025847,-0.013323,56993
2025-02-26 01:52:57.695763,sleep,9.682152,1.640028,-1.347936,-0.056757,0.025847,-0.014123,57002
2025-02-26 01:52:57.695763,sleep,9.65821,1.63524,-1.312023,-0.055424,0.026113,-0.014389,56997
2025-02-26 01:52:57.695763,sleep,9.67018,1.649605,-1.352724,-0.054358,0.021051,-0.014389,56965
2025-02-26 01:52:57.695763,sleep,9.67018,1.630451,-1.359907,-0.055691,0.022916,-0.013856,56963
2025-02-26 01:52:57.695763,sleep,9.665392,1.606509,-1.302446,-0.055424,0.024781,-0.014922,56926
2025-02-26 01:52:57.695763,sleep,9.674969,1.623269,-1.307234,-0.053559,0.018386,-0.01732,56935
2025-02-26 01:52:57.695763,sleep,9.679757,1.623269,-1.312023,-0.05196,0.010658,-0.016521,56880
2025-02-26 01:52:57.695763,sleep,9.655815,1.647211,-1.364695,-0.054891,0.011724,-0.017054,56837
2025-02-26 01:52:57.695763,sleep,9.639056,1.616086,-1.376666,-0.056757,0.023182,-0.015455,56810
2025-02-26 01:52:57.695763,sleep,9.67018,1.625663,-1.338359,-0.055691,0.032242,-0.015188,56637
2025-02-26 01:52:57.695763,sleep,9.674969,1.640028,-1.33357,-0.055957,0.021051,-0.01732,56451
2025-02-26 01:52:57.695763,sleep,9.655815,1.61848,-1.326388,-0.055957,0.011991,-0.019185,56428
2025-02-26 01:52:57.695763,sleep,9.67018,1.630451,-1.331176,-0.054092,0.012524,-0.018652,56500
2025-02-26 01:52:57.695763,sleep,9.67018,1.644817,-1.359907,-0.053825,0.017587,-0.017587,56411
2025-02-26 01:52:57.695763,sleep,9.648633,1.640028,-1.362301,-0.055158,0.020784,-0.015721,56313
2025-02-26 01:52:57.695763,sleep,9.648633,1.630451,-1.316811,-0.05649,0.023182,-0.015455,56203
2025-02-26 01:52:57.695763,sleep,9.636662,1.649605,-1.374272,-0.055691,0.025314,-0.013856,56107
2025-02-26 01:52:57.695763,sleep,9.674969,1.63524,-1.352724,-0.055424,0.025314,-0.013323,56061
2025-02-26 01:52:57.695763,sleep,9.679757,1.651999,-1.352724,-0.055424,0.021317,-0.013856,55990
2025-02-26 01:52:57.695763,sleep,9.665392,1.649605,-1.362301,-0.054092,0.022383,-0.014922,55829
2025-02-26 01:52:57.695763,sleep,9.65821,1.632846,-1.367089,-0.055957,0.020784,-0.015188,55818
2025-02-26 01:52:57.695763,sleep,9.634268,1.628057,-1.33357,-0.055158,0.02185,-0.014922,55812
2025-02-26 01:52:57.695763,sleep,9.672575,1.642422,-1.323994,-0.053292,0.022383,-0.014655,55738
2025-02-26 01:52:57.695763,sleep,9.653421,1.647211,-1.352724,-0.054092,0.017587,-0.01359,55731
2025-02-26 01:52:57.695763,sleep,9.665392,1.630451,-1.331176,-0.054891,0.024515,-0.01279,55805
2025-02-26 01:52:57.695763,sleep,9.65821,1.625663,-1.335965,-0.054358,0.026913,-0.013856,55770
2025-02-26 01:52:57.695763,sleep,9.698911,1.632846,-1.321599,-0.057289,0.021583,-0.014922,55715
2025-02-26 01:52:57.695763,sleep,9.64145,1.642422,-1.35033,-0.057289,0.020251,-0.013856,55731
2025-02-26 01:52:57.695763,sleep,9.667787,1.644817,-1.343147,-0.056224,0.026913,-0.013057,55771
2025-02-26 01:52:57.695763,sleep,9.667787,1.628057,-1.33357,-0.057289,0.022649,-0.015455,55799
2025-02-26 01:52:57.695763,sleep,9.648633,1.630451,-1.343147,-0.056224,0.019985,-0.014922,55807
2025-02-26 01:52:57.695763,sleep,9.667787,1.625663,-1.343147,-0.055424,0.023449,-0.013856,55787
2025-02-26 01:52:57.695763,sleep,9.677363,1.637634,-1.33357,-0.055158,0.025847,-0.015188,55747
2025-02-26 01:52:57.695763,sleep,9.665392,1.651999,-1.335965,-0.054625,0.023982,-0.014123,55684
2025-02-26 01:52:57.695763,sleep,9.674969,1.637634,-1.345541,-0.054891,0.021317,-0.01359,55637
2025-02-26 01:52:57.695763,sleep,9.684546,1.640028,-1.335965,-0.055957,0.021583,-0.014655,55635
2025-02-26 01:52:57.695763,sleep,9.662998,1.63524,-1.355118,-0.055691,0.024781,-0.013323,55664
2025-02-26 01:52:57.695763,sleep,9.651027,1.623269,-1.331176,-0.054891,0.02558,-0.013323,55677
2025-02-26 01:52:57.695763,sleep,9.648633,1.649605,-1.369483,-0.054625,0.023982,-0.01279,55606
2025-02-26 01:52:57.695763,sleep,9.660604,1.63524,-1.359907,-0.055158,0.023449,-0.013856,55546
2025-02-26 01:52:57.695763,sleep,9.660604,1.620875,-1.343147,-0.054092,0.024248,-0.015188,55490
2025-02-26 01:52:57.695763,sleep,9.660604,1.647211,-1.371878,-0.055424,0.019452,-0.01359,55486
2025-02-26 01:52:57.695763,sleep,9.660604,1.637634,-1.340753,-0.054358,0.019718,-0.013856,55487
2025-02-26 01:52:57.695763,sleep,9.660604,1.637634,-1.364695,-0.054891,0.024515,-0.013856,55503
2025-02-26 01:52:57.695763,sleep,9.651027,1.625663,-1.367089,-0.055691,0.024515,-0.01279,55458
2025-02-26 01:52:57.695763,sleep,9.65821,1.620875,-1.319205,-0.055158,0.023449,-0.013057,55466
2025-02-26 01:52:57.695763,sleep,9.662998,1.654393,-1.323994,-0.054358,0.022649,-0.013057,55469
2025-02-26 01:52:57.695763,sleep,9.65821,1.63524,-1.347936,-0.055957,0.024515,-0.012524,55443
2025-02-26 01:52:57.695763,sleep,9.674969,1.640028,-1.364695,-0.055957,0.029311,-0.011991,55455
2025-02-26 01:52:57.695763,sleep,9.648633,1.640028,-1.371878,-0.054891,0.027979,-0.014389,55516
2025-02-26 01:52:57.695763,sleep,9.674969,1.642422,-1.326388,-0.054358,0.021317,-0.01279,55510
2025-02-26 01:52:57.695763,sleep,9.655815,1.625663,-1.30484,-0.05196,0.01732,-0.014123,55614
2025-02-26 01:52:57.695763,sleep,9.655815,1.640028,-1.374272,-0.052493,0.014655,-0.014389,55625
2025-02-26 01:52:57.695763,sleep,9.646238,1.625663,-1.369483,-0.054092,0.017587,-0.014389,55625
2025-02-26 01:52:57.695763,sleep,9.65821,1.628057,-1.338359,-0.056757,0.027712,-0.013856,55642
2025-02-26 01:52:57.695763,sleep,9.672575,1.623269,-1.319205,-0.055158,0.025047,-0.014922,55586
2025-02-26 01:52:57.695763,sleep,9.660604,1.640028,-1.340753,-0.05649,0.014389,-0.016521,55524
2025-02-26 01:52:57.695763,sleep,9.648633,1.628057,-1.35033,-0.055158,0.013323,-0.016787,55602
2025-02-26 01:52:57.695763,sleep,9.651027,1.628057,-1.364695,-0.053559,0.017054,-0.015721,55601
2025-02-26 01:52:57.695763,sleep,9.655815,1.628057,-1.357512,-0.055158,0.019185,-0.014655,55553
2025-02-26 01:52:57.695763,sleep,9.629479,1.628057,-1.340753,-0.055424,0.022649,-0.01359,55565
2025-02-26 01:52:57.695763,sleep,9.662998,1.630451,-1.355118,-0.054625,0.024248,-0.013856,55500
2025-02-26 01:52:57.695763,sleep,9.67018,1.632846,-1.381454,-0.055424,0.023182,-0.013057,55486
2025-02-26 01:52:57.695763,sleep,9.65821,1.630451,-1.338359,-0.056224,0.023182,-0.01359,55469
2025-02-26 01:52:57.695763,sleep,9.662998,1.630451,-1.343147,-0.056224,0.023715,-0.013856,55420
2025-02-26 01:52:57.695763,sleep,9.679757,1.625663,-1.376666,-0.054358,0.022649,-0.01359,55372
2025-02-26 01:52:57.695763,sleep,9.660604,1.613692,-1.371878,-0.05649,0.020784,-0.014922,55371
2025-02-26 01:52:57.695763,sleep,9.677363,1.632846,-1.321599,-0.055957,0.023182,-0.015455,55280
2025-02-26 01:52:57.695763,sleep,9.651027,1.637634,-1.319205,-0.053825,0.016787,-0.015455,55101
2025-02-26 01:52:57.695763,sleep,9.655815,1.625663,-1.359907,-0.055158,0.01732,-0.015188,55024
2025-02-26 01:52:57.695763,sleep,9.667787,1.632846,-1.371878,-0.054358,0.021583,-0.01732,54883
2025-02-26 01:52:57.695763,sleep,9.65821,1.63524,-1.355118,-0.055957,0.018652,-0.017054,54694
2025-02-26 01:52:57.695763,sleep,9.634268,1.625663,-1.371878,-0.057556,0.016787,-0.016521,54568
2025-02-26 01:52:57.695763,sleep,9.651027,1.628057,-1.355118,-0.05649,0.018386,-0.016254,54470
2025-02-26 01:52:57.695763,sleep,9.682152,1.623269,-1.335965,-0.057556,0.017853,-0.015988,54369
2025-02-26 01:52:57.695763,sleep,9.651027,1.625663,-1.352724,-0.057023,0.01732,-0.015455,54337
2025-02-26 01:52:57.695763,sleep,9.65821,1.628057,-1.359907,-0.056224,0.021583,-0.013856,54346
2025-02-26 01:52:57.695763,sleep,9.660604,1.616086,-1.340753,-0.057556,0.023715,-0.014123,54326
