Timestamp,Label,AccelX,AccelY,AccelZ,GyroX,GyroY,GyroZ,IR
2025-02-26 00:40:41.409065,sleep,9.832987,1.084573,-0.967257,-0.054625,0.022116,-0.014922,115753
2025-02-26 00:40:41.409065,sleep,9.861717,1.070208,-0.972046,-0.055957,0.024515,-0.013856,115995
2025-02-26 00:40:41.409065,sleep,9.85214,1.053449,-0.962469,-0.055158,0.023982,-0.01359,115975
2025-02-26 00:40:41.409065,sleep,9.830592,1.06542,-0.955287,-0.055158,0.022916,-0.014389,116002
2025-02-26 00:40:41.409065,sleep,9.849746,1.074997,-0.957681,-0.056224,0.02558,-0.01359,115912
2025-02-26 00:40:41.409065,sleep,9.849746,1.060631,-0.943315,-0.055158,0.024248,-0.014123,115933
2025-02-26 00:40:41.409065,sleep,9.849746,1.082179,-0.940921,-0.055158,0.024515,-0.015721,115961
2025-02-26 00:40:41.409065,sleep,9.844957,1.072602,-0.957681,-0.054092,0.022116,-0.015188,116019
2025-02-26 00:40:41.409065,sleep,9.816227,1.089362,-0.967257,-0.055691,0.023982,-0.014123,115993
2025-02-26 00:40:41.409065,sleep,9.844957,1.074997,-0.931344,-0.054625,0.025047,-0.013856,115974
2025-02-26 00:40:41.409065,sleep,9.847352,1.063026,-0.905008,-0.054092,0.020784,-0.014655,115947
2025-02-26 00:40:41.409065,sleep,9.830592,1.077391,-0.943315,-0.055158,0.021051,-0.015455,115623
2025-02-26 00:40:41.409065,sleep,9.835381,1.084573,-0.940921,-0.055691,0.022116,-0.016254,115076
2025-02-26 00:40:41.409065,sleep,9.811439,1.074997,-0.955287,-0.055691,0.023715,-0.014389,114440
2025-02-26 00:40:41.409065,sleep,9.847352,1.072602,-0.919373,-0.056757,0.023449,-0.014123,113862
2025-02-26 00:40:41.409065,sleep,9.837775,1.072602,-0.962469,-0.055424,0.02185,-0.015455,113543
2025-02-26 00:40:41.409065,sleep,9.825804,1.09415,-0.933739,-0.056224,0.023182,-0.014922,113464
2025-02-26 00:40:41.409065,sleep,9.840169,1.086968,-0.950498,-0.055158,0.023715,-0.014655,113487
2025-02-26 00:40:41.409065,sleep,9.840169,1.079785,-0.972046,-0.054625,0.021583,-0.014655,113568
2025-02-26 00:40:41.409065,sleep,9.840169,1.082179,-0.950498,-0.054092,0.02185,-0.014123,113716
2025-02-26 00:40:41.409065,sleep,9.837775,1.09415,-0.964863,-0.054625,0.021583,-0.014389,113819
2025-02-26 00:40:41.409065,sleep,9.82341,1.09415,-0.97444,-0.054891,0.022383,-0.014655,113927
2025-02-26 00:40:41.409065,sleep,9.832987,1.079785,-0.943315,-0.055691,0.023982,-0.013856,114107
2025-02-26 00:40:41.409065,sleep,9.859323,1.079785,-0.955287,-0.055424,0.025314,-0.014123,114214
2025-02-26 00:40:41.409065,sleep,9.840169,1.06542,-0.979228,-0.055424,0.02185,-0.014123,114286
2025-02-26 00:40:41.409065,sleep,9.828198,1.072602,-0.964863,-0.05649,0.025314,-0.015188,114343
2025-02-26 00:40:41.409065,sleep,9.861717,1.096544,-0.948104,-0.056757,0.025314,-0.014922,114477
2025-02-26 00:40:41.409065,sleep,9.842564,1.077391,-0.972046,-0.055424,0.023182,-0.014922,114519
2025-02-26 00:40:41.409065,sleep,9.828198,1.074997,-0.955287,-0.054625,0.023182,-0.014655,114657
2025-02-26 00:40:41.409065,sleep,9.861717,1.060631,-0.964863,-0.055691,0.021583,-0.015721,114686
2025-02-26 00:40:41.409065,sleep,9.842564,1.043872,-0.938527,-0.055691,0.022916,-0.014655,114742
2025-02-26 00:40:41.409065,sleep,9.840169,1.06542,-0.995988,-0.055957,0.024781,-0.014389,114726
2025-02-26 00:40:41.409065,sleep,9.844957,1.074997,-0.967257,-0.056224,0.023982,-0.013856,114618
2025-02-26 00:40:41.409065,sleep,9.842564,1.082179,-0.972046,-0.055158,0.025314,-0.013323,114582
2025-02-26 00:40:41.409065,sleep,9.837775,1.082179,-0.952892,-0.055957,0.023982,-0.014389,114557
2025-02-26 00:40:41.409065,sleep,9.832987,1.070208,-0.914585,-0.055158,0.024515,-0.014389,114516
2025-02-26 00:40:41.409065,sleep,9.847352,1.063026,-0.964863,-0.055424,0.022649,-0.014389,114554
2025-02-26 00:40:41.409065,sleep,9.837775,1.06542,-0.972046,-0.054891,0.023449,-0.014922,114588
2025-02-26 00:40:41.409065,sleep,9.828198,1.06542,-0.962469,-0.055957,0.023449,-0.015188,114620
2025-02-26 00:40:41.409065,sleep,9.849746,1.077391,-0.962469,-0.055158,0.023982,-0.014389,114733
2025-02-26 00:40:41.409065,sleep,9.85214,1.082179,-0.957681,-0.055691,0.024248,-0.014922,114834
2025-02-26 00:40:41.409065,sleep,9.842564,1.077391,-0.955287,-0.05649,0.025314,-0.014123,114926
2025-02-26 00:40:41.409065,sleep,9.854534,1.082179,-0.943315,-0.054891,0.025047,-0.014922,114994
2025-02-26 00:40:41.409065,sleep,9.844957,1.086968,-0.960075,-0.055957,0.024515,-0.015721,115019
2025-02-26 00:40:41.409065,sleep,9.844957,1.086968,-0.967257,-0.054891,0.024781,-0.014389,115173
2025-02-26 00:40:41.409065,sleep,9.842564,1.067814,-0.94571,-0.054891,0.023715,-0.014922,115292
2025-02-26 00:40:41.409065,sleep,9.837775,1.074997,-0.950498,-0.056224,0.022383,-0.013856,115346
2025-02-26 00:40:41.409065,sleep,9.813833,1.074997,-0.948104,-0.055158,0.022383,-0.01359,115408
2025-02-26 00:40:41.409065,sleep,9.842564,1.079785,-0.936133,-0.054625,0.024515,-0.014123,115418
2025-02-26 00:40:41.409065,sleep,9.830592,1.072602,-0.94571,-0.055691,0.023182,-0.014655,115425
2025-02-26 00:40:41.409065,sleep,9.859323,1.09415,-0.933739,-0.055424,0.022649,-0.013323,115419
2025-02-26 00:40:41.409065,sleep,9.835381,1.084573,-0.967257,-0.055424,0.023715,-0.014389,115514
2025-02-26 00:40:41.409065,sleep,9.859323,1.06542,-0.964863,-0.055691,0.024515,-0.015188,115611
2025-02-26 00:40:41.409065,sleep,9.837775,1.084573,-0.960075,-0.055424,0.024248,-0.014389,115649
2025-02-26 00:40:41.409065,sleep,9.847352,1.060631,-0.967257,-0.055424,0.024248,-0.014123,115651
2025-02-26 00:40:41.409065,sleep,9.821015,1.086968,-0.943315,-0.055424,0.024248,-0.014922,115654
2025-02-26 00:40:41.409065,sleep,9.837775,1.079785,-0.950498,-0.054891,0.023715,-0.014389,115684
2025-02-26 00:40:41.409065,sleep,9.830592,1.058237,-0.950498,-0.055691,0.024781,-0.014655,115700
2025-02-26 00:40:41.409065,sleep,9.821015,1.060631,-0.952892,-0.055158,0.023182,-0.015188,115714
2025-02-26 00:40:41.409065,sleep,9.837775,1.072602,-0.988805,-0.056224,0.023182,-0.014389,115720
2025-02-26 00:40:41.409065,sleep,9.854534,1.084573,-0.950498,-0.055424,0.023449,-0.015188,115726
2025-02-26 00:40:41.409065,sleep,9.830592,1.070208,-0.967257,-0.05649,0.023182,-0.015188,115746
2025-02-26 00:40:41.409065,sleep,9.832987,1.074997,-0.950498,-0.054891,0.024248,-0.014655,115855
2025-02-26 00:40:41.409065,sleep,9.837775,1.084573,-0.936133,-0.055691,0.022916,-0.014655,115876
2025-02-26 00:40:41.409065,sleep,9.849746,1.084573,-0.981623,-0.05649,0.023449,-0.013323,115726
2025-02-26 00:40:41.409065,sleep,9.842564,1.082179,-0.957681,-0.055158,0.022916,-0.014389,115933
2025-02-26 00:40:41.409065,sleep,9.837775,1.074997,-0.94571,-0.054891,0.022649,-0.014922,115938
2025-02-26 00:40:41.409065,sleep,9.868899,1.082179,-0.948104,-0.055691,0.023182,-0.014123,115981
2025-02-26 00:40:41.409065,sleep,9.847352,1.072602,-0.955287,-0.054625,0.023182,-0.014655,116110
2025-02-26 00:40:41.409065,sleep,9.82341,1.074997,-0.979228,-0.055158,0.024515,-0.014123,116120
2025-02-26 00:40:41.409065,sleep,9.835381,1.070208,-0.964863,-0.053825,0.02185,-0.014123,116118
2025-02-26 00:40:41.409065,sleep,9.861717,1.089362,-0.94571,-0.054625,0.022649,-0.014922,116078
2025-02-26 00:40:41.409065,sleep,9.842564,1.082179,-0.976834,-0.054891,0.022116,-0.015188,116006
2025-02-26 00:40:41.409065,sleep,9.849746,1.067814,-0.955287,-0.055957,0.024515,-0.013856,115996
2025-02-26 00:40:41.409065,sleep,9.832987,1.070208,-0.960075,-0.054891,0.023982,-0.013856,116049
2025-02-26 00:40:41.409065,sleep,9.835381,1.063026,-0.936133,-0.055158,0.019985,-0.014922,116051
2025-02-26 00:40:41.409065,sleep,9.832987,1.086968,-0.933739,-0.053825,0.020251,-0.014389,115780
2025-02-26 00:40:41.409065,sleep,9.825804,1.091756,-0.955287,-0.055691,0.022916,-0.015188,115286
2025-02-26 00:40:41.409065,sleep,9.849746,1.079785,-0.931344,-0.05649,0.023982,-0.014389,114625
2025-02-26 00:40:41.409065,sleep,9.849746,1.084573,-0.957681,-0.057289,0.023449,-0.014389,114078
2025-02-26 00:40:41.409065,sleep,9.813833,1.06542,-0.909797,-0.056224,0.021583,-0.014922,113749
2025-02-26 00:40:41.409065,sleep,9.818622,1.055843,-0.931344,-0.054891,0.021583,-0.015188,113535
2025-02-26 00:40:41.409065,sleep,9.828198,1.072602,-0.938527,-0.055957,0.022916,-0.014655,113583
2025-02-26 00:40:41.409065,sleep,9.828198,1.074997,-0.94571,-0.054625,0.022116,-0.014922,113607
2025-02-26 00:40:41.409065,sleep,9.837775,1.074997,-0.960075,-0.054092,0.021583,-0.014922,113777
2025-02-26 00:40:41.409065,sleep,9.842564,1.096544,-0.933739,-0.054625,0.02185,-0.014389,113963
2025-02-26 00:40:41.409065,sleep,9.842564,1.082179,-0.984017,-0.055424,0.023182,-0.014389,114110
2025-02-26 00:40:41.409065,sleep,9.849746,1.070208,-0.967257,-0.056224,0.024248,-0.014922,114206
2025-02-26 00:40:41.409065,sleep,9.85214,1.077391,-0.950498,-0.056224,0.024781,-0.014389,114272
2025-02-26 00:40:41.409065,sleep,9.835381,1.067814,-0.957681,-0.055424,0.023182,-0.014655,114396
2025-02-26 00:40:41.409065,sleep,9.840169,1.079785,-0.97444,-0.056224,0.024781,-0.013856,114578
2025-02-26 00:40:41.409065,sleep,9.849746,1.082179,-0.957681,-0.055691,0.024248,-0.014123,114718
2025-02-26 00:40:41.409065,sleep,9.866506,1.058237,-0.948104,-0.055424,0.023449,-0.015188,114878
2025-02-26 00:40:41.409065,sleep,9.847352,1.084573,-0.943315,-0.055158,0.020251,-0.014922,114923
2025-02-26 00:40:41.409065,sleep,9.842564,1.074997,-0.940921,-0.054891,0.020518,-0.014922,114868
2025-02-26 00:40:41.409065,sleep,9.830592,1.070208,-0.94571,-0.055158,0.023449,-0.015188,114804
2025-02-26 00:40:41.409065,sleep,9.85214,1.077391,-0.948104,-0.055424,0.023715,-0.014922,114770
2025-02-26 00:40:41.409065,sleep,9.840169,1.072602,-0.943315,-0.055424,0.024248,-0.014389,114744
2025-02-26 00:40:41.409065,sleep,9.82341,1.055843,-0.94571,-0.055691,0.024781,-0.014655,114729
2025-02-26 00:40:41.409065,sleep,9.821015,1.06542,-0.967257,-0.056224,0.022383,-0.014389,114677
2025-02-26 00:40:41.409065,sleep,9.830592,1.067814,-0.931344,-0.055424,0.023449,-0.014123,114587
2025-02-26 00:40:41.409065,sleep,9.861717,1.063026,-0.943315,-0.055691,0.023449,-0.015188,114804
2025-02-26 00:40:41.409065,sleep,9.85214,1.079785,-0.955287,-0.055424,0.02185,-0.015455,114809
2025-02-26 00:40:41.409065,sleep,9.837775,1.079785,-0.972046,-0.054891,0.021317,-0.014123,114767
2025-02-26 00:40:41.409065,sleep,9.840169,1.077391,-0.916979,-0.055158,0.022649,-0.014123,114775
2025-02-26 00:40:41.409065,sleep,9.849746,1.077391,-0.979228,-0.055424,0.022916,-0.014123,114803
2025-02-26 00:40:41.409065,sleep,9.840169,1.098939,-0.952892,-0.055957,0.023982,-0.014123,114889
2025-02-26 00:40:41.409065,sleep,9.847352,1.077391,-0.976834,-0.054625,0.023982,-0.014123,115009
2025-02-26 00:40:41.409065,sleep,9.840169,1.067814,-0.962469,-0.055424,0.023715,-0.01359,115027
2025-02-26 00:40:41.409065,sleep,9.832987,1.089362,-0.950498,-0.055158,0.023982,-0.013856,115052
2025-02-26 00:40:41.409065,sleep,9.849746,1.082179,-0.931344,-0.054625,0.023449,-0.01359,115093
2025-02-26 00:40:41.409065,sleep,9.840169,1.072602,-0.938527,-0.055424,0.024248,-0.015188,115171
2025-02-26 00:40:41.409065,sleep,9.835381,1.058237,-0.94571,-0.056224,0.022383,-0.015188,115203
2025-02-26 00:40:41.409065,sleep,9.837775,1.058237,-0.931344,-0.055424,0.023182,-0.014922,115206
2025-02-26 00:40:41.409065,sleep,9.840169,1.082179,-0.952892,-0.056224,0.021583,-0.013856,115236
2025-02-26 00:40:41.409065,sleep,9.844957,1.074997,-0.92895,-0.055424,0.023449,-0.013856,115317
2025-02-26 00:40:41.409065,sleep,9.847352,1.06542,-0.936133,-0.055691,0.022649,-0.014655,115372
2025-02-26 00:40:41.409065,sleep,9.859323,1.060631,-0.981623,-0.055691,0.022916,-0.014123,115441
2025-02-26 00:40:41.409065,sleep,9.837775,1.067814,-0.964863,-0.055691,0.022116,-0.014123,115502
2025-02-26 00:40:41.409065,sleep,9.835381,1.089362,-0.97444,-0.055957,0.022916,-0.01359,115541
2025-02-26 00:40:41.409065,sleep,9.856929,1.082179,-0.955287,-0.056224,0.023982,-0.014389,115521
2025-02-26 00:40:41.409065,sleep,9.842564,1.063026,-0.952892,-0.055424,0.023715,-0.014123,115563
2025-02-26 00:40:41.409065,sleep,9.85214,1.077391,-0.964863,-0.055158,0.023449,-0.013856,115617
2025-02-26 00:40:41.409065,sleep,9.840169,1.070208,-0.957681,-0.055691,0.022649,-0.014389,115628
2025-02-26 00:40:41.409065,sleep,9.844957,1.082179,-0.964863,-0.055691,0.023715,-0.013856,115634
2025-02-26 00:40:41.409065,sleep,9.837775,1.070208,-0.92895,-0.055158,0.023982,-0.014123,115607
2025-02-26 00:40:41.409065,sleep,9.840169,1.077391,-0.960075,-0.055424,0.022383,-0.014655,115563
2025-02-26 00:40:41.409065,sleep,9.830592,1.067814,-0.94571,-0.055424,0.022649,-0.014922,115544
2025-02-26 00:40:41.409065,sleep,9.856929,1.077391,-0.969652,-0.055691,0.022116,-0.014655,115559
2025-02-26 00:40:41.409065,sleep,9.82341,1.070208,-0.938527,-0.055957,0.023982,-0.013856,115572
2025-02-26 00:40:41.409065,sleep,9.828198,1.077391,-0.936133,-0.055424,0.022916,-0.014123,115619
2025-02-26 00:40:41.409065,sleep,9.840169,1.072602,-0.957681,-0.054625,0.022916,-0.014655,115591
2025-02-26 00:40:41.409065,sleep,9.82341,1.060631,-0.948104,-0.055691,0.023982,-0.014389,115568
2025-02-26 00:40:41.409065,sleep,9.85214,1.072602,-0.964863,-0.054625,0.022116,-0.015188,115559
2025-02-26 00:40:41.409065,sleep,9.847352,1.070208,-0.972046,-0.055691,0.023182,-0.013323,115524
2025-02-26 00:40:41.409065,sleep,9.85214,1.072602,-0.926556,-0.055424,0.025047,-0.01359,115557
2025-02-26 00:40:41.409065,sleep,9.847352,1.072602,-0.952892,-0.055158,0.022916,-0.014389,115522
2025-02-26 00:40:41.409065,sleep,9.859323,1.074997,-0.933739,-0.055158,0.020251,-0.015455,115352
2025-02-26 00:40:41.409065,sleep,9.835381,1.072602,-0.955287,-0.056224,0.022116,-0.014123,114963
2025-02-26 00:40:41.409065,sleep,9.830592,1.091756,-0.948104,-0.055691,0.024248,-0.014389,114449
2025-02-26 00:40:41.409065,sleep,9.830592,1.082179,-0.955287,-0.058089,0.023715,-0.015188,113934
2025-02-26 00:40:41.409065,sleep,9.82341,1.070208,-0.940921,-0.056224,0.022916,-0.013856,113577
2025-02-26 00:40:41.409065,sleep,9.821015,1.055843,-0.967257,-0.054625,0.021583,-0.014655,113405
2025-02-26 00:40:41.409065,sleep,9.837775,1.06542,-0.943315,-0.054891,0.022383,-0.014655,113380
2025-02-26 00:40:41.409065,sleep,9.847352,1.06542,-0.964863,-0.055158,0.022916,-0.014655,113515
2025-02-26 00:40:41.409065,sleep,9.854534,1.077391,-0.962469,-0.054358,0.022383,-0.015455,113704
2025-02-26 00:40:41.409065,sleep,9.828198,1.063026,-0.94571,-0.053825,0.021583,-0.015988,113844
2025-02-26 00:40:41.409065,sleep,9.828198,1.063026,-0.955287,-0.054092,0.022916,-0.015721,113963
2025-02-26 00:40:41.409065,sleep,9.830592,1.077391,-0.955287,-0.054891,0.023715,-0.01359,114081
2025-02-26 00:40:41.409065,sleep,9.837775,1.067814,-0.967257,-0.055691,0.025847,-0.014389,114082
2025-02-26 00:40:41.409065,sleep,9.847352,1.084573,-0.969652,-0.055424,0.023449,-0.014389,114133
2025-02-26 00:40:41.409065,sleep,9.830592,1.079785,-0.940921,-0.056224,0.024781,-0.013856,114215
2025-02-26 00:40:41.409065,sleep,9.842564,1.067814,-0.950498,-0.055424,0.02638,-0.01279,114352
2025-02-26 00:40:41.409065,sleep,9.821015,1.067814,-0.950498,-0.055957,0.023449,-0.014389,114554
2025-02-26 00:40:41.409065,sleep,9.849746,1.082179,-0.94571,-0.055158,0.022116,-0.01359,114667
2025-02-26 00:40:41.409065,sleep,9.840169,1.072602,-0.979228,-0.055158,0.022383,-0.015455,114650
2025-02-26 00:40:41.409065,sleep,9.811439,1.063026,-0.936133,-0.055158,0.023182,-0.014655,114623
2025-02-26 00:40:41.409065,sleep,9.842564,1.079785,-0.957681,-0.055424,0.022916,-0.013856,114609
2025-02-26 00:40:41.409065,sleep,9.835381,1.079785,-0.955287,-0.054891,0.025047,-0.014389,114552
2025-02-26 00:40:41.409065,sleep,9.842564,1.070208,-0.94571,-0.055424,0.022916,-0.015188,114505
2025-02-26 00:40:41.409065,sleep,9.85214,1.060631,-0.943315,-0.055691,0.023449,-0.014922,114465
2025-02-26 00:40:41.409065,sleep,9.85214,1.063026,-0.94571,-0.055691,0.022916,-0.015188,114474
2025-02-26 00:40:41.409065,sleep,9.842564,1.055843,-0.957681,-0.054891,0.023449,-0.014389,114552
2025-02-26 00:40:41.409065,sleep,9.835381,1.077391,-0.933739,-0.054891,0.022649,-0.014922,114584
2025-02-26 00:40:41.409065,sleep,9.835381,1.077391,-0.984017,-0.055691,0.02185,-0.015455,114631
2025-02-26 00:40:41.409065,sleep,9.825804,1.067814,-0.986411,-0.055957,0.023449,-0.014922,114474
2025-02-26 00:40:41.409065,sleep,9.82341,1.079785,-0.976834,-0.054891,0.022116,-0.014389,114744
2025-02-26 00:40:41.409065,sleep,9.85214,1.058237,-0.976834,-0.055424,0.022383,-0.014389,114854
2025-02-26 00:40:41.409065,sleep,9.85214,1.103727,-0.952892,-0.054891,0.023449,-0.014655,114896
2025-02-26 00:40:41.411071,sleep,9.844957,1.086968,-0.969652,-0.054891,0.023715,-0.014123,115028
2025-02-26 00:40:41.411071,sleep,9.835381,1.070208,-0.960075,-0.055691,0.022916,-0.014655,115134
2025-02-26 00:40:41.411071,sleep,9.837775,1.084573,-0.938527,-0.054625,0.022383,-0.013856,115140
2025-02-26 00:40:41.411071,sleep,9.842564,1.074997,-0.97444,-0.055424,0.022916,-0.014123,115134
2025-02-26 00:40:41.411071,sleep,9.832987,1.089362,-0.950498,-0.055424,0.022649,-0.014389,115157
2025-02-26 00:40:41.411071,sleep,9.842564,1.079785,-0.960075,-0.055424,0.023182,-0.014123,115178
2025-02-26 00:40:41.411071,sleep,9.813833,1.077391,-0.967257,-0.055691,0.02185,-0.01359,115250
2025-02-26 00:40:41.411071,sleep,9.847352,1.058237,-0.960075,-0.055691,0.02185,-0.014655,115353
2025-02-26 00:40:41.411071,sleep,9.847352,1.082179,-0.97444,-0.054358,0.021583,-0.015455,115388
2025-02-26 00:40:41.411071,sleep,9.832987,1.079785,-0.94571,-0.054891,0.02185,-0.014655,115365
2025-02-26 00:40:41.411071,sleep,9.842564,1.070208,-0.948104,-0.054625,0.023182,-0.014389,115408
2025-02-26 00:40:41.411071,sleep,9.849746,1.09415,-0.950498,-0.055424,0.022916,-0.013856,115410
2025-02-26 00:40:41.411071,sleep,9.828198,1.072602,-0.962469,-0.054891,0.022916,-0.014389,115449
2025-02-26 00:40:41.411071,sleep,9.847352,1.079785,-0.955287,-0.055158,0.023449,-0.014922,115401
2025-02-26 00:40:41.411071,sleep,9.854534,1.070208,-0.940921,-0.055424,0.023449,-0.014655,115465
2025-02-26 00:40:41.411071,sleep,9.844957,1.072602,-0.943315,-0.054891,0.022116,-0.015721,115456
2025-02-26 00:40:41.411071,sleep,9.835381,1.074997,-0.931344,-0.055424,0.023182,-0.014922,115522
2025-02-26 00:40:41.411071,sleep,9.842564,1.091756,-0.950498,-0.055691,0.022383,-0.014922,115586
2025-02-26 00:40:41.411071,sleep,9.832987,1.09415,-0.976834,-0.055691,0.023182,-0.014123,115600
2025-02-26 00:40:41.411071,sleep,9.828198,1.063026,-0.957681,-0.055691,0.022649,-0.014655,115625
2025-02-26 00:40:41.411071,sleep,9.837775,1.072602,-0.960075,-0.054891,0.023715,-0.015455,115606
2025-02-26 00:40:41.411071,sleep,9.835381,1.074997,-0.964863,-0.055158,0.023182,-0.014123,115650
2025-02-26 00:40:41.411071,sleep,9.825804,1.082179,-0.948104,-0.056224,0.022383,-0.015188,115770
2025-02-26 00:40:41.411071,sleep,9.821015,1.070208,-0.948104,-0.054625,0.022916,-0.014922,115777
2025-02-26 00:40:41.411071,sleep,9.832987,1.058237,-0.955287,-0.055424,0.023182,-0.015188,115823
2025-02-26 00:40:41.411071,sleep,9.840169,1.077391,-0.924162,-0.055957,0.022649,-0.014922,115789
2025-02-26 00:40:41.411071,sleep,9.821015,1.098939,-0.924162,-0.055158,0.022383,-0.015188,115824
2025-02-26 00:40:41.411071,sleep,9.847352,1.063026,-0.960075,-0.055424,0.022383,-0.014655,115728
2025-02-26 00:40:41.411071,sleep,9.842564,1.084573,-0.936133,-0.055957,0.022383,-0.013856,115785
2025-02-26 00:40:41.411071,sleep,9.840169,1.089362,-0.94571,-0.054891,0.024781,-0.014123,115805
2025-02-26 00:40:41.411071,sleep,9.818622,1.063026,-0.948104,-0.055691,0.022383,-0.014389,115850
2025-02-26 00:40:41.411071,sleep,9.832987,1.067814,-0.962469,-0.055158,0.022116,-0.015188,115765
2025-02-26 00:40:41.411071,sleep,9.840169,1.086968,-0.962469,-0.055158,0.02185,-0.014655,115946
2025-02-26 00:40:41.411071,sleep,9.828198,1.079785,-0.955287,-0.055424,0.025047,-0.014655,115935
2025-02-26 00:40:41.411071,sleep,9.85214,1.063026,-0.957681,-0.056224,0.022649,-0.015455,115919
2025-02-26 00:40:41.411071,sleep,9.840169,1.077391,-0.97444,-0.054625,0.02185,-0.015721,115757
2025-02-26 00:40:41.411071,sleep,9.837775,1.077391,-0.981623,-0.055158,0.021317,-0.014655,115287
2025-02-26 00:40:41.411071,sleep,9.840169,1.074997,-0.957681,-0.056224,0.02185,-0.014389,114685
2025-02-26 00:40:41.411071,sleep,9.849746,1.082179,-0.952892,-0.056757,0.023449,-0.015988,114071
2025-02-26 00:40:41.411071,sleep,9.840169,1.084573,-0.931344,-0.055691,0.023715,-0.014922,113670
2025-02-26 00:40:41.411071,sleep,9.849746,1.098939,-0.94571,-0.056224,0.023182,-0.014655,113459
2025-02-26 00:40:41.411071,sleep,9.842564,1.079785,-0.964863,-0.054891,0.022649,-0.015455,113327
2025-02-26 00:40:41.411071,sleep,9.832987,1.06542,-0.969652,-0.055957,0.022383,-0.013856,113345
2025-02-26 00:40:41.411071,sleep,9.847352,1.079785,-0.984017,-0.054358,0.020251,-0.014389,113414
2025-02-26 00:40:41.411071,sleep,9.832987,1.074997,-0.952892,-0.054625,0.021051,-0.015188,113527
2025-02-26 00:40:41.411071,sleep,9.828198,1.079785,-0.957681,-0.054625,0.02185,-0.014922,113634
2025-02-26 00:40:41.411071,sleep,9.830592,1.091756,-0.97444,-0.055424,0.024248,-0.014389,113724
2025-02-26 00:40:41.411071,sleep,9.844957,1.091756,-0.943315,-0.056224,0.023715,-0.014389,113414
2025-02-26 00:40:41.411071,sleep,9.844957,1.06542,-0.952892,-0.055424,0.025047,-0.014389,114009
2025-02-26 00:40:41.411071,sleep,9.82341,1.089362,-0.940921,-0.054625,0.02185,-0.015188,114128
2025-02-26 00:40:41.411071,sleep,9.854534,1.070208,-0.964863,-0.056757,0.025847,-0.014123,114183
2025-02-26 00:40:41.411071,sleep,9.832987,1.077391,-0.940921,-0.05649,0.024781,-0.01359,114336
2025-02-26 00:40:41.411071,sleep,9.844957,1.082179,-0.950498,-0.055158,0.023982,-0.014655,114479
2025-02-26 00:40:41.411071,sleep,9.837775,1.074997,-0.94571,-0.054092,0.020784,-0.015455,114632
2025-02-26 00:40:41.411071,sleep,9.840169,1.089362,-0.981623,-0.053825,0.020518,-0.015455,114661
2025-02-26 00:40:41.411071,sleep,9.835381,1.091756,-0.950498,-0.055158,0.022916,-0.014123,114700
2025-02-26 00:40:41.411071,sleep,9.837775,1.058237,-0.952892,-0.055691,0.022916,-0.014123,114650
2025-02-26 00:40:41.411071,sleep,9.830592,1.082179,-0.988805,-0.055691,0.025314,-0.014123,114544
2025-02-26 00:40:41.411071,sleep,9.832987,1.084573,-0.962469,-0.056224,0.02558,-0.014655,114461
2025-02-26 00:40:41.411071,sleep,9.859323,1.063026,-0.94571,-0.055957,0.024248,-0.014655,114432
2025-02-26 00:40:41.411071,sleep,9.85214,1.077391,-0.955287,-0.055424,0.022916,-0.014123,114480
2025-02-26 00:40:41.411071,sleep,9.844957,1.084573,-0.967257,-0.054891,0.021317,-0.014123,114526
2025-02-26 00:40:41.411071,sleep,9.847352,1.055843,-0.955287,-0.055158,0.022916,-0.015188,114570
2025-02-26 00:40:41.411071,sleep,9.825804,1.077391,-0.952892,-0.055691,0.022383,-0.014123,114548
2025-02-26 00:40:41.411071,sleep,9.840169,1.079785,-0.955287,-0.054625,0.021583,-0.014389,114580
2025-02-26 00:40:41.411071,sleep,9.809045,1.058237,-0.938527,-0.055158,0.023715,-0.014123,114628
2025-02-26 00:40:41.411071,sleep,9.830592,1.082179,-0.969652,-0.055424,0.023449,-0.015188,114679
2025-02-26 00:40:41.411071,sleep,9.837775,1.09415,-0.955287,-0.054625,0.023182,-0.014922,114674
2025-02-26 00:40:41.411071,sleep,9.844957,1.074997,-0.960075,-0.055158,0.023449,-0.015721,114745
2025-02-26 00:40:41.411071,sleep,9.840169,1.072602,-0.955287,-0.054891,0.022916,-0.014922,114833
2025-02-26 00:40:41.411071,sleep,9.85214,1.084573,-0.940921,-0.054625,0.023715,-0.013856,114909
2025-02-26 00:40:41.411071,sleep,9.849746,1.089362,-0.957681,-0.055158,0.023449,-0.014123,115011
2025-02-26 00:40:41.411071,sleep,9.840169,1.070208,-0.960075,-0.055957,0.022383,-0.01359,115065
2025-02-26 00:40:41.411071,sleep,9.828198,1.070208,-0.969652,-0.055424,0.024248,-0.014922,115151
2025-02-26 00:40:41.411071,sleep,9.825804,1.067814,-0.955287,-0.054891,0.023715,-0.014655,115187
2025-02-26 00:40:41.411071,sleep,9.844957,1.082179,-0.981623,-0.055158,0.022649,-0.015455,115247
2025-02-26 00:40:41.411071,sleep,9.80665,1.06542,-0.964863,-0.054625,0.022383,-0.014389,115354
2025-02-26 00:40:41.411071,sleep,9.847352,1.079785,-0.957681,-0.055424,0.023182,-0.014922,115430
2025-02-26 00:40:41.411071,sleep,9.825804,1.046266,-0.943315,-0.054891,0.023449,-0.01359,115489
2025-02-26 00:40:41.411071,sleep,9.854534,1.06542,-0.940921,-0.055158,0.023715,-0.015188,115461
2025-02-26 00:40:41.411071,sleep,9.830592,1.067814,-0.94571,-0.055691,0.021583,-0.014389,115439
2025-02-26 00:40:41.411071,sleep,9.813833,1.06542,-0.962469,-0.056224,0.022383,-0.01359,115457
2025-02-26 00:40:41.411071,sleep,9.835381,1.079785,-0.933739,-0.055158,0.022383,-0.014123,115485
2025-02-26 00:40:41.411071,sleep,9.835381,1.072602,-0.940921,-0.055424,0.022383,-0.014655,115513
2025-02-26 00:40:41.411071,sleep,9.844957,1.079785,-0.943315,-0.054891,0.023182,-0.01359,115572
2025-02-26 00:40:41.411071,sleep,9.82341,1.084573,-0.964863,-0.055957,0.023449,-0.014922,115547
2025-02-26 00:40:41.411071,sleep,9.844957,1.060631,-0.972046,-0.056224,0.023449,-0.014389,115560
2025-02-26 00:40:41.411071,sleep,9.840169,1.084573,-0.940921,-0.055158,0.022649,-0.013856,115538
2025-02-26 00:40:41.411071,sleep,9.821015,1.072602,-0.955287,-0.054891,0.023449,-0.014389,115531
2025-02-26 00:40:41.411071,sleep,9.840169,1.091756,-0.967257,-0.055158,0.022916,-0.014123,115530
2025-02-26 00:40:41.411071,sleep,9.842564,1.06542,-0.936133,-0.055424,0.022116,-0.014655,115519
2025-02-26 00:40:41.411071,sleep,9.859323,1.04866,-0.950498,-0.055424,0.022916,-0.014123,115551
2025-02-26 00:40:41.411071,sleep,9.837775,1.074997,-0.952892,-0.055957,0.023715,-0.013856,115572
2025-02-26 00:40:41.411071,sleep,9.82341,1.055843,-0.972046,-0.055158,0.024515,-0.013856,115652
2025-02-26 00:40:41.411071,sleep,9.840169,1.055843,-0.991199,-0.055158,0.023982,-0.014655,115680
2025-02-26 00:40:41.411071,sleep,9.832987,1.091756,-0.957681,-0.054891,0.022383,-0.014655,115737
2025-02-26 00:40:41.411071,sleep,9.837775,1.067814,-0.943315,-0.055957,0.02558,-0.013856,115764
2025-02-26 00:40:41.411071,sleep,9.842564,1.070208,-0.960075,-0.054891,0.022916,-0.014123,115742
2025-02-26 00:40:41.411071,sleep,9.840169,1.04866,-0.955287,-0.05649,0.022383,-0.015721,115807
2025-02-26 00:40:41.411071,sleep,9.842564,1.074997,-1.015141,-0.055158,0.02185,-0.014123,115909
2025-02-26 00:40:41.411071,sleep,9.840169,1.070208,-0.981623,-0.055691,0.02558,-0.014123,115937
2025-02-26 00:40:41.411071,sleep,9.844957,1.067814,-0.933739,-0.056224,0.024515,-0.014655,115930
2025-02-26 00:40:41.411071,sleep,9.830592,1.079785,-0.938527,-0.054625,0.021317,-0.014655,115842
2025-02-26 00:40:41.411071,sleep,9.844957,1.072602,-0.967257,-0.055424,0.021051,-0.015188,115465
2025-02-26 00:40:41.411071,sleep,9.847352,1.089362,-0.943315,-0.055957,0.022649,-0.014655,114877
2025-02-26 00:40:41.411071,sleep,9.80665,1.086968,-0.986411,-0.056224,0.025047,-0.015188,114272
2025-02-26 00:40:41.411071,sleep,9.830592,1.082179,-0.938527,-0.055957,0.023982,-0.014123,113799
2025-02-26 00:40:41.411071,sleep,9.821015,1.072602,-0.950498,-0.055691,0.023182,-0.015721,113551
2025-02-26 00:40:41.411071,sleep,9.82341,1.082179,-0.962469,-0.056224,0.022649,-0.015721,113382
2025-02-26 00:40:41.411071,sleep,9.861717,1.096544,-0.960075,-0.055957,0.023182,-0.014655,113382
2025-02-26 00:40:41.411071,sleep,9.854534,1.079785,-0.988805,-0.054891,0.022116,-0.014123,113489
2025-02-26 00:40:41.411071,sleep,9.842564,1.096544,-0.931344,-0.054092,0.023449,-0.014922,113558
2025-02-26 00:40:41.411071,sleep,9.849746,1.077391,-0.921768,-0.055158,0.022916,-0.013323,113715
2025-02-26 00:40:41.411071,sleep,9.840169,1.063026,-0.967257,-0.055691,0.022649,-0.01359,113848
2025-02-26 00:40:41.411071,sleep,9.832987,1.067814,-0.943315,-0.05649,0.023449,-0.014922,113947
2025-02-26 00:40:41.411071,sleep,9.830592,1.067814,-0.957681,-0.056224,0.025847,-0.01359,113558
2025-02-26 00:40:41.411071,sleep,9.847352,1.079785,-0.94571,-0.056224,0.022649,-0.014123,114228
2025-02-26 00:40:41.411071,sleep,9.821015,1.072602,-0.936133,-0.055957,0.02558,-0.013856,114333
2025-02-26 00:40:41.411071,sleep,9.830592,1.063026,-0.943315,-0.055957,0.026113,-0.01359,114432
2025-02-26 00:40:41.411071,sleep,9.85214,1.060631,-0.960075,-0.054891,0.023449,-0.014389,114581
2025-02-26 00:40:41.411071,sleep,9.85214,1.070208,-0.950498,-0.054625,0.022383,-0.015455,114687
2025-02-26 00:40:41.411071,sleep,9.830592,1.070208,-0.94571,-0.054891,0.020784,-0.015455,114831
2025-02-26 00:40:41.411071,sleep,9.828198,1.067814,-0.979228,-0.056224,0.022116,-0.014922,114895
2025-02-26 00:40:41.411071,sleep,9.859323,1.079785,-0.97444,-0.055957,0.023715,-0.014922,114834
2025-02-26 00:40:41.411071,sleep,9.861717,1.077391,-0.967257,-0.05649,0.023982,-0.013057,114814
2025-02-26 00:40:41.411071,sleep,9.835381,1.072602,-0.97444,-0.055957,0.023715,-0.014123,114719
2025-02-26 00:40:41.411071,sleep,9.828198,1.077391,-0.964863,-0.056224,0.023715,-0.014922,114670
2025-02-26 00:40:41.411071,sleep,9.837775,1.089362,-0.962469,-0.054891,0.024781,-0.014389,114672
2025-02-26 00:40:41.411071,sleep,9.854534,1.077391,-0.950498,-0.055158,0.024248,-0.014123,114702
2025-02-26 00:40:41.411071,sleep,9.847352,1.074997,-0.94571,-0.055691,0.023182,-0.014389,114781
2025-02-26 00:40:41.411071,sleep,9.868899,1.072602,-0.960075,-0.055424,0.022116,-0.01359,114850
