Timestamp,Label,AccelX,AccelY,AccelZ,GyroX,GyroY,GyroZ,IR
2025-02-26 01:57:38.477720,sleep,9.68694,1.656788,-1.266533,-0.056224,0.024781,-0.013856,43779
2025-02-26 01:57:38.477720,sleep,9.677363,1.654393,-1.252167,-0.054625,0.023449,-0.014389,43749
2025-02-26 01:57:38.477720,sleep,9.684546,1.661576,-1.244985,-0.054625,0.023715,-0.013057,43778
2025-02-26 01:57:38.489458,sleep,9.67018,1.649605,-1.247379,-0.054891,0.02558,-0.012524,43804
2025-02-26 01:57:38.489458,sleep,9.65821,1.651999,-1.223437,-0.055424,0.023715,-0.012257,43799
2025-02-26 01:57:38.489458,sleep,9.667787,1.647211,-1.247379,-0.055957,0.025047,-0.01279,43777
2025-02-26 01:57:38.489458,sleep,9.691729,1.654393,-1.249773,-0.055424,0.023982,-0.01359,43840
2025-02-26 01:57:38.489458,sleep,9.662998,1.659182,-1.254562,-0.055158,0.023982,-0.013323,43804
2025-02-26 01:57:38.489458,sleep,9.689334,1.668759,-1.235408,-0.054625,0.024781,-0.015721,43984
2025-02-26 01:57:38.489458,sleep,9.677363,1.647211,-1.242591,-0.053559,0.019185,-0.013856,43988
2025-02-26 01:57:38.489458,sleep,9.691729,1.654393,-1.242591,-0.053292,0.019185,-0.014389,44043
2025-02-26 01:57:38.489458,sleep,9.696517,1.66397,-1.278504,-0.054358,0.021583,-0.014389,44053
2025-02-26 01:57:38.489458,sleep,9.672575,1.659182,-1.264138,-0.055957,0.029311,-0.013856,44068
2025-02-26 01:57:38.489458,sleep,9.655815,1.644817,-1.228225,-0.057289,0.028778,-0.013057,44101
2025-02-26 01:57:38.489458,sleep,9.701305,1.623269,-1.221043,-0.057023,0.021317,-0.015455,44090
2025-02-26 01:57:38.489458,sleep,9.689334,1.640028,-1.223437,-0.05649,0.014123,-0.017853,44075
2025-02-26 01:57:38.489458,sleep,9.691729,1.651999,-1.209072,-0.054891,0.011991,-0.019452,43932
2025-02-26 01:57:38.489458,sleep,9.662998,1.654393,-1.249773,-0.055691,0.011724,-0.018652,43745
2025-02-26 01:57:38.489458,sleep,9.653421,1.661576,-1.266533,-0.055957,0.015455,-0.015455,43601
2025-02-26 01:57:38.489458,sleep,9.684546,1.642422,-1.290475,-0.05649,0.023982,-0.014922,43509
2025-02-26 01:57:38.489458,sleep,9.689334,1.630451,-1.25935,-0.055158,0.023982,-0.015188,43481
2025-02-26 01:57:38.489458,sleep,9.694122,1.654393,-1.235408,-0.054891,0.021583,-0.014123,43547
2025-02-26 01:57:38.489458,sleep,9.696517,1.656788,-1.290475,-0.054358,0.023715,-0.013856,43549
2025-02-26 01:57:38.489458,sleep,9.677363,1.66397,-1.25935,-0.055424,0.028778,-0.014389,43547
2025-02-26 01:57:38.489458,sleep,9.672575,1.661576,-1.228225,-0.055957,0.02558,-0.015188,43540
2025-02-26 01:57:38.489458,sleep,9.677363,1.659182,-1.244985,-0.055158,0.023982,-0.014123,43566
2025-02-26 01:57:38.489458,sleep,9.677363,1.654393,-1.223437,-0.054625,0.024781,-0.015188,43527
2025-02-26 01:57:38.489458,sleep,9.672575,1.66397,-1.228225,-0.053292,0.019718,-0.014922,43454
2025-02-26 01:57:38.489458,sleep,9.672575,1.649605,-1.237802,-0.055158,0.022916,-0.013856,43451
2025-02-26 01:57:38.489458,sleep,9.701305,1.625663,-1.225831,-0.054625,0.026646,-0.015188,43481
2025-02-26 01:57:38.489458,sleep,9.677363,1.666364,-1.218649,-0.055158,0.022116,-0.014389,43479
2025-02-26 01:57:38.489458,sleep,9.672575,1.637634,-1.273715,-0.055158,0.022116,-0.014123,43564
2025-02-26 01:57:38.489458,sleep,9.691729,1.644817,-1.252167,-0.055424,0.025847,-0.013856,43607
2025-02-26 01:57:38.489458,sleep,9.696517,1.647211,-1.240196,-0.055424,0.024781,-0.014655,43650
2025-02-26 01:57:38.489458,sleep,9.672575,1.666364,-1.235408,-0.055957,0.022116,-0.014922,43602
2025-02-26 01:57:38.489458,sleep,9.68694,1.642422,-1.249773,-0.054891,0.024781,-0.014389,43593
2025-02-26 01:57:38.489458,sleep,9.691729,1.66397,-1.233014,-0.055158,0.022916,-0.014389,43673
2025-02-26 01:57:38.489458,sleep,9.696517,1.659182,-1.225831,-0.054625,0.021051,-0.015188,43654
2025-02-26 01:57:38.489458,sleep,9.662998,1.649605,-1.235408,-0.054625,0.022116,-0.014389,43637
2025-02-26 01:57:38.489458,sleep,9.679757,1.647211,-1.273715,-0.054358,0.023982,-0.01359,43568
2025-02-26 01:57:38.489458,sleep,9.684546,1.668759,-1.252167,-0.053026,0.022916,-0.014389,43495
2025-02-26 01:57:38.489458,sleep,9.706094,1.656788,-1.235408,-0.053825,0.020251,-0.014922,43488
2025-02-26 01:57:38.489458,sleep,9.679757,1.654393,-1.261744,-0.054092,0.022383,-0.014123,43516
2025-02-26 01:57:38.489458,sleep,9.667787,1.668759,-1.247379,-0.055691,0.025047,-0.014389,43555
2025-02-26 01:57:38.489458,sleep,9.665392,1.642422,-1.235408,-0.055957,0.023715,-0.014123,43574
2025-02-26 01:57:38.489458,sleep,9.679757,1.656788,-1.249773,-0.055158,0.025047,-0.014389,43586
2025-02-26 01:57:38.489458,sleep,9.679757,1.649605,-1.228225,-0.054358,0.023982,-0.014123,43511
2025-02-26 01:57:38.489458,sleep,9.672575,1.637634,-1.247379,-0.054358,0.023449,-0.014922,43510
2025-02-26 01:57:38.489458,sleep,9.677363,1.647211,-1.264138,-0.055424,0.022916,-0.014123,43495
2025-02-26 01:57:38.489458,sleep,9.68694,1.647211,-1.244985,-0.054092,0.022649,-0.014123,43480
2025-02-26 01:57:38.489458,sleep,9.691729,1.642422,-1.244985,-0.055424,0.024515,-0.014123,43468
2025-02-26 01:57:38.489458,sleep,9.689334,1.659182,-1.209072,-0.054891,0.024248,-0.014922,43450
2025-02-26 01:57:38.489458,sleep,9.674969,1.647211,-1.233014,-0.055158,0.023715,-0.014389,43495
2025-02-26 01:57:38.489458,sleep,9.662998,1.666364,-1.240196,-0.054891,0.023182,-0.014123,43556
2025-02-26 01:57:38.489458,sleep,9.679757,1.63524,-1.285686,-0.055424,0.023982,-0.013323,43558
2025-02-26 01:57:38.489458,sleep,9.689334,1.659182,-1.242591,-0.054092,0.023449,-0.015188,43567
2025-02-26 01:57:38.489458,sleep,9.682152,1.654393,-1.266533,-0.054625,0.022916,-0.014655,43558
2025-02-26 01:57:38.489458,sleep,9.689334,1.640028,-1.235408,-0.055691,0.022116,-0.014655,43596
2025-02-26 01:57:38.489458,sleep,9.679757,1.647211,-1.249773,-0.054358,0.023449,-0.013856,43620
2025-02-26 01:57:38.489458,sleep,9.662998,1.642422,-1.268927,-0.055158,0.023182,-0.014123,43633
2025-02-26 01:57:38.489458,sleep,9.68694,1.656788,-1.249773,-0.054092,0.024248,-0.013856,43638
2025-02-26 01:57:38.489458,sleep,9.684546,1.640028,-1.254562,-0.055424,0.024781,-0.014123,43572
2025-02-26 01:57:38.489458,sleep,9.696517,1.661576,-1.237802,-0.054625,0.024515,-0.013323,43503
2025-02-26 01:57:38.489458,sleep,9.691729,1.632846,-1.254562,-0.055424,0.025047,-0.014389,43472
2025-02-26 01:57:38.489458,sleep,9.674969,1.675941,-1.235408,-0.054625,0.024515,-0.015188,43478
2025-02-26 01:57:38.489458,sleep,9.684546,1.656788,-1.256956,-0.054891,0.024515,-0.01359,43489
2025-02-26 01:57:38.489458,sleep,9.689334,1.668759,-1.235408,-0.055158,0.021317,-0.015455,43509
2025-02-26 01:57:38.489458,sleep,9.677363,1.661576,-1.237802,-0.053825,0.020784,-0.014922,43524
2025-02-26 01:57:38.489458,sleep,9.674969,1.640028,-1.237802,-0.053292,0.019985,-0.014655,43443
2025-02-26 01:57:38.489458,sleep,9.660604,1.649605,-1.295263,-0.054358,0.022383,-0.014389,43376
2025-02-26 01:57:38.489458,sleep,9.674969,1.628057,-1.242591,-0.054891,0.028511,-0.013856,43325
2025-02-26 01:57:38.489458,sleep,9.694122,1.668759,-1.244985,-0.057289,0.025047,-0.015455,43282
2025-02-26 01:57:38.489458,sleep,9.68694,1.647211,-1.254562,-0.057289,0.018119,-0.018119,43185
2025-02-26 01:57:38.489458,sleep,9.674969,1.659182,-1.280898,-0.056224,0.01359,-0.017853,43093
2025-02-26 01:57:38.489458,sleep,9.706094,1.661576,-1.249773,-0.055957,0.013057,-0.019718,43017
2025-02-26 01:57:38.489458,sleep,9.674969,1.666364,-1.256956,-0.055691,0.014655,-0.018652,42882
2025-02-26 01:57:38.489458,sleep,9.672575,1.659182,-1.252167,-0.056224,0.021051,-0.015988,42788
2025-02-26 01:57:38.489458,sleep,9.682152,1.647211,-1.271321,-0.055158,0.025047,-0.015188,42734
2025-02-26 01:57:38.489458,sleep,9.674969,1.649605,-1.240196,-0.054358,0.021051,-0.016254,42733
2025-02-26 01:57:38.489458,sleep,9.674969,1.637634,-1.290475,-0.055691,0.022649,-0.014922,42725
2025-02-26 01:57:38.489458,sleep,9.665392,1.654393,-1.264138,-0.054891,0.025847,-0.013856,42736
2025-02-26 01:57:38.489458,sleep,9.674969,1.651999,-1.252167,-0.055691,0.026646,-0.014123,42744
2025-02-26 01:57:38.489458,sleep,9.694122,1.659182,-1.261744,-0.054891,0.024515,-0.013856,42806
2025-02-26 01:57:38.489458,sleep,9.672575,1.671153,-1.280898,-0.055158,0.023449,-0.014655,42827
2025-02-26 01:57:38.489458,sleep,9.698911,1.659182,-1.237802,-0.053292,0.022649,-0.015988,42726
2025-02-26 01:57:38.489458,sleep,9.682152,1.671153,-1.247379,-0.055424,0.019452,-0.015721,42630
2025-02-26 01:57:38.489458,sleep,9.672575,1.661576,-1.244985,-0.055691,0.025847,-0.013057,42613
2025-02-26 01:57:38.489458,sleep,9.708488,1.661576,-1.261744,-0.054358,0.025847,-0.014389,42641
2025-02-26 01:57:38.489458,sleep,9.674969,1.659182,-1.252167,-0.054358,0.022649,-0.014922,42636
2025-02-26 01:57:38.489458,sleep,9.674969,1.649605,-1.278504,-0.055691,0.023982,-0.014389,42676
2025-02-26 01:57:38.489458,sleep,9.691729,1.659182,-1.252167,-0.054891,0.027446,-0.013856,42654
2025-02-26 01:57:38.489458,sleep,9.68694,1.666364,-1.211466,-0.055424,0.024248,-0.014389,42636
2025-02-26 01:57:38.489458,sleep,9.674969,1.644817,-1.256956,-0.05649,0.023449,-0.01359,42624
2025-02-26 01:57:38.489458,sleep,9.689334,1.642422,-1.254562,-0.055691,0.023449,-0.015988,42620
2025-02-26 01:57:38.489458,sleep,9.694122,1.692701,-1.266533,-0.054625,0.022916,-0.015188,42584
2025-02-26 01:57:38.489458,sleep,9.660604,1.671153,-1.228225,-0.054625,0.021583,-0.014922,42517
2025-02-26 01:57:38.489458,sleep,9.677363,1.673547,-1.25935,-0.054092,0.023182,-0.014389,42494
2025-02-26 01:57:38.489458,sleep,9.696517,1.661576,-1.252167,-0.054358,0.023449,-0.015455,42483
2025-02-26 01:57:38.489458,sleep,9.672575,1.666364,-1.254562,-0.054625,0.02185,-0.014922,42521
2025-02-26 01:57:38.489458,sleep,9.677363,1.671153,-1.254562,-0.054625,0.023182,-0.01359,42573
2025-02-26 01:57:38.489458,sleep,9.68694,1.666364,-1.266533,-0.054625,0.024248,-0.014123,42540
2025-02-26 01:57:38.489458,sleep,9.698911,1.666364,-1.247379,-0.056224,0.02638,-0.01359,42618
2025-02-26 01:57:38.489458,sleep,9.684546,1.651999,-1.261744,-0.055158,0.023982,-0.013057,42571
2025-02-26 01:57:38.489458,sleep,9.689334,1.651999,-1.21386,-0.055957,0.022383,-0.013856,42632
2025-02-26 01:57:38.489458,sleep,9.684546,1.656788,-1.218649,-0.055158,0.023449,-0.014389,42663
2025-02-26 01:57:38.489458,sleep,9.703699,1.656788,-1.228225,-0.054092,0.023182,-0.014389,42694
2025-02-26 01:57:38.489458,sleep,9.682152,1.668759,-1.237802,-0.054891,0.023715,-0.014123,42641
2025-02-26 01:57:38.489458,sleep,9.674969,1.651999,-1.233014,-0.054891,0.023715,-0.014389,42689
2025-02-26 01:57:38.489458,sleep,9.662998,1.642422,-1.247379,-0.055158,0.023449,-0.013856,42606
2025-02-26 01:57:38.489458,sleep,9.660604,1.656788,-1.237802,-0.055424,0.022649,-0.014655,42600
2025-02-26 01:57:38.489458,sleep,9.684546,1.642422,-1.254562,-0.054625,0.024248,-0.014123,42589
2025-02-26 01:57:38.489458,sleep,9.68694,1.651999,-1.247379,-0.055424,0.023715,-0.013856,42638
2025-02-26 01:57:38.489458,sleep,9.665392,1.649605,-1.266533,-0.054358,0.023715,-0.014655,42677
2025-02-26 01:57:38.489458,sleep,9.691729,1.644817,-1.233014,-0.055158,0.023982,-0.014389,42630
2025-02-26 01:57:38.489458,sleep,9.691729,1.666364,-1.223437,-0.054891,0.022916,-0.014389,42631
2025-02-26 01:57:38.489458,sleep,9.679757,1.649605,-1.261744,-0.054358,0.023982,-0.014123,42602
2025-02-26 01:57:38.489458,sleep,9.67018,1.642422,-1.268927,-0.054625,0.023715,-0.015188,42596
2025-02-26 01:57:38.489458,sleep,9.677363,1.651999,-1.242591,-0.054891,0.023982,-0.014655,42604
2025-02-26 01:57:38.489458,sleep,9.689334,1.644817,-1.209072,-0.054358,0.023182,-0.014389,42566
2025-02-26 01:57:38.489458,sleep,9.674969,1.661576,-1.247379,-0.054891,0.023182,-0.014123,42569
2025-02-26 01:57:38.489458,sleep,9.68694,1.651999,-1.237802,-0.055158,0.022649,-0.01359,42590
2025-02-26 01:57:38.489458,sleep,9.662998,1.642422,-1.247379,-0.054358,0.023982,-0.014922,42664
2025-02-26 01:57:38.489458,sleep,9.677363,1.661576,-1.240196,-0.055158,0.023982,-0.014389,42566
2025-02-26 01:57:38.489458,sleep,9.674969,1.661576,-1.283292,-0.054891,0.023982,-0.014123,42690
2025-02-26 01:57:38.489458,sleep,9.696517,1.651999,-1.256956,-0.055158,0.023982,-0.013856,42711
2025-02-26 01:57:38.489458,sleep,9.672575,1.642422,-1.249773,-0.055158,0.025314,-0.014123,42710
2025-02-26 01:57:38.489458,sleep,9.679757,1.659182,-1.244985,-0.055691,0.022116,-0.01359,42739
2025-02-26 01:57:38.489458,sleep,9.713276,1.666364,-1.235408,-0.055424,0.023715,-0.014123,42803
2025-02-26 01:57:38.489458,sleep,9.689334,1.649605,-1.235408,-0.054891,0.02558,-0.014123,42844
2025-02-26 01:57:38.489458,sleep,9.684546,1.637634,-1.252167,-0.053825,0.022916,-0.015188,42841
2025-02-26 01:57:38.489458,sleep,9.674969,1.654393,-1.237802,-0.051694,0.017587,-0.015721,42811
2025-02-26 01:57:38.489458,sleep,9.682152,1.68073,-1.295263,-0.054092,0.019452,-0.014655,42712
2025-02-26 01:57:38.489458,sleep,9.706094,1.659182,-1.261744,-0.054891,0.028245,-0.013057,42739
2025-02-26 01:57:38.489458,sleep,9.698911,1.651999,-1.249773,-0.056757,0.026913,-0.01359,42696
2025-02-26 01:57:38.489458,sleep,9.679757,1.656788,-1.23062,-0.055957,0.021051,-0.015721,42712
2025-02-26 01:57:38.489458,sleep,9.672575,1.649605,-1.249773,-0.056757,0.016254,-0.01732,42672
2025-02-26 01:57:38.489458,sleep,9.682152,1.644817,-1.235408,-0.055691,0.012257,-0.019452,42539
2025-02-26 01:57:38.489458,sleep,9.65821,1.66397,-1.254562,-0.055424,0.010392,-0.018919,42404
2025-02-26 01:57:38.489458,sleep,9.672575,1.656788,-1.242591,-0.055424,0.018652,-0.016787,42301
2025-02-26 01:57:38.489458,sleep,9.667787,1.644817,-1.254562,-0.056224,0.025314,-0.014922,42221
2025-02-26 01:57:38.489458,sleep,9.677363,1.654393,-1.268927,-0.054358,0.022116,-0.014655,42178
2025-02-26 01:57:38.489458,sleep,9.677363,1.649605,-1.264138,-0.054092,0.021583,-0.013323,42244
2025-02-26 01:57:38.489458,sleep,9.679757,1.66397,-1.261744,-0.054358,0.025047,-0.014123,42247
2025-02-26 01:57:38.489458,sleep,9.682152,1.651999,-1.247379,-0.055424,0.026646,-0.013856,42221
2025-02-26 01:57:38.489458,sleep,9.679757,1.68073,-1.254562,-0.055691,0.025847,-0.013856,42438
2025-02-26 01:57:38.489458,sleep,9.674969,1.647211,-1.240196,-0.054625,0.025047,-0.01279,42520
2025-02-26 01:57:38.489458,sleep,9.684546,1.668759,-1.209072,-0.054358,0.024515,-0.014655,42584
2025-02-26 01:57:38.489458,sleep,9.679757,1.649605,-1.242591,-0.05276,0.020518,-0.014922,42543
2025-02-26 01:57:38.489458,sleep,9.674969,1.66397,-1.254562,-0.055424,0.023449,-0.013323,42596
2025-02-26 01:57:38.489458,sleep,9.691729,1.659182,-1.242591,-0.054358,0.028778,-0.013856,42732
2025-02-26 01:57:38.489458,sleep,9.691729,1.659182,-1.247379,-0.054358,0.023715,-0.014123,42785
2025-02-26 01:57:38.489458,sleep,9.677363,1.659182,-1.254562,-0.055158,0.02185,-0.01359,42848
2025-02-26 01:57:38.489458,sleep,9.698911,1.656788,-1.266533,-0.055691,0.027179,-0.013323,42889
2025-02-26 01:57:38.489458,sleep,9.701305,1.647211,-1.249773,-0.05649,0.027446,-0.013057,42894
2025-02-26 01:57:38.489458,sleep,9.665392,1.640028,-1.237802,-0.054891,0.023449,-0.013856,42883
2025-02-26 01:57:38.489458,sleep,9.655815,1.644817,-1.249773,-0.055158,0.023715,-0.014389,42921
2025-02-26 01:57:38.489458,sleep,9.677363,1.654393,-1.264138,-0.055957,0.025047,-0.015188,42949
2025-02-26 01:57:38.489458,sleep,9.655815,1.644817,-1.249773,-0.054891,0.023182,-0.014123,42964
2025-02-26 01:57:38.489458,sleep,9.677363,1.656788,-1.256956,-0.054891,0.020784,-0.014655,42971
2025-02-26 01:57:38.489458,sleep,9.651027,1.666364,-1.237802,-0.054092,0.023715,-0.014655,42916
2025-02-26 01:57:38.489458,sleep,9.662998,1.642422,-1.244985,-0.054891,0.023182,-0.015721,42922
2025-02-26 01:57:38.489458,sleep,9.674969,1.661576,-1.23062,-0.054358,0.022649,-0.013323,42946
2025-02-26 01:57:38.489458,sleep,9.672575,1.656788,-1.240196,-0.054891,0.025047,-0.014655,42981
2025-02-26 01:57:38.489458,sleep,9.677363,1.651999,-1.237802,-0.055158,0.026113,-0.013057,43016
2025-02-26 01:57:38.489458,sleep,9.696517,1.659182,-1.233014,-0.055957,0.025047,-0.014655,43034
2025-02-26 01:57:38.489458,sleep,9.703699,1.647211,-1.235408,-0.055691,0.025047,-0.013057,43098
2025-02-26 01:57:38.489458,sleep,9.691729,1.654393,-1.268927,-0.055158,0.023449,-0.014389,43175
2025-02-26 01:57:38.489458,sleep,9.674969,1.642422,-1.268927,-0.054625,0.023182,-0.014389,43232
2025-02-26 01:57:38.489458,sleep,9.674969,1.642422,-1.266533,-0.053559,0.023449,-0.014922,43275
2025-02-26 01:57:38.489458,sleep,9.67018,1.661576,-1.237802,-0.055424,0.023715,-0.013323,43306
2025-02-26 01:57:38.489458,sleep,9.679757,1.654393,-1.266533,-0.055424,0.025314,-0.013856,43337
2025-02-26 01:57:38.489458,sleep,9.672575,1.66397,-1.254562,-0.054625,0.02558,-0.013856,43382
2025-02-26 01:57:38.489458,sleep,9.67018,1.644817,-1.242591,-0.055158,0.025047,-0.01359,43467
2025-02-26 01:57:38.489458,sleep,9.677363,1.640028,-1.249773,-0.054625,0.024515,-0.014655,43501
2025-02-26 01:57:38.489458,sleep,9.689334,1.654393,-1.264138,-0.055158,0.024248,-0.014123,43527
2025-02-26 01:57:38.489458,sleep,9.682152,1.66397,-1.247379,-0.055957,0.024781,-0.013323,43518
2025-02-26 01:57:38.489458,sleep,9.679757,1.656788,-1.249773,-0.056224,0.025047,-0.014389,43490
2025-02-26 01:57:38.489458,sleep,9.643845,1.649605,-1.233014,-0.054358,0.023182,-0.014655,43504
2025-02-26 01:57:38.489458,sleep,9.677363,1.640028,-1.221043,-0.055424,0.023182,-0.014123,43560
2025-02-26 01:57:38.489458,sleep,9.682152,1.651999,-1.237802,-0.055158,0.023982,-0.013323,43618
2025-02-26 01:57:38.489458,sleep,9.696517,1.651999,-1.244985,-0.054625,0.023715,-0.01359,43654
2025-02-26 01:57:38.489458,sleep,9.684546,1.668759,-1.225831,-0.054625,0.024781,-0.01359,43612
2025-02-26 01:57:38.489458,sleep,9.701305,1.649605,-1.273715,-0.054625,0.023182,-0.01359,43611
2025-02-26 01:57:38.489458,sleep,9.677363,1.640028,-1.235408,-0.055424,0.024781,-0.013856,43643
2025-02-26 01:57:38.489458,sleep,9.677363,1.673547,-1.235408,-0.055158,0.023182,-0.013856,43665
2025-02-26 01:57:38.489458,sleep,9.68694,1.642422,-1.242591,-0.055957,0.023982,-0.014389,43626
2025-02-26 01:57:38.489458,sleep,9.694122,1.647211,-1.261744,-0.055691,0.023715,-0.01359,43643
2025-02-26 01:57:38.489458,sleep,9.677363,1.659182,-1.240196,-0.055424,0.024781,-0.01279,43672
2025-02-26 01:57:38.489458,sleep,9.701305,1.668759,-1.23062,-0.054891,0.024248,-0.012524,43665
2025-02-26 01:57:38.489458,sleep,9.684546,1.642422,-1.254562,-0.055158,0.024248,-0.014655,43846
2025-02-26 01:57:38.489458,sleep,9.67018,1.640028,-1.233014,-0.055424,0.024248,-0.014389,43853
2025-02-26 01:57:38.489458,sleep,9.677363,1.656788,-1.254562,-0.054358,0.02185,-0.014922,43873
2025-02-26 01:57:38.489458,sleep,9.672575,1.654393,-1.240196,-0.052227,0.019985,-0.014389,43931
2025-02-26 01:57:38.489458,sleep,9.655815,1.659182,-1.228225,-0.054625,0.02185,-0.014123,43956
2025-02-26 01:57:38.489458,sleep,9.679757,1.654393,-1.264138,-0.056224,0.02638,-0.013057,43988
2025-02-26 01:57:38.489458,sleep,9.672575,1.66397,-1.216254,-0.056757,0.029044,-0.013057,44022
2025-02-26 01:57:38.489458,sleep,9.696517,1.661576,-1.244985,-0.056224,0.024515,-0.016521,43994
2025-02-26 01:57:38.489458,sleep,9.701305,1.647211,-1.235408,-0.05649,0.016521,-0.017054,43919
2025-02-26 01:57:38.489458,sleep,9.708488,1.654393,-1.242591,-0.055424,0.011991,-0.018386,43753
2025-02-26 01:57:38.489458,sleep,9.682152,1.673547,-1.25935,-0.054891,0.011991,-0.019452,43625
2025-02-26 01:57:38.489458,sleep,9.665392,1.666364,-1.252167,-0.055691,0.013856,-0.016787,43467
2025-02-26 01:57:38.489458,sleep,9.665392,1.668759,-1.264138,-0.056757,0.023182,-0.015455,43410
2025-02-26 01:57:38.489458,sleep,9.674969,1.661576,-1.233014,-0.055424,0.024248,-0.015721,43377
2025-02-26 01:57:38.489458,sleep,9.672575,1.661576,-1.254562,-0.054358,0.021583,-0.014389,43441
2025-02-26 01:57:38.489458,sleep,9.672575,1.659182,-1.266533,-0.053825,0.023715,-0.014123,43464
2025-02-26 01:57:38.489458,sleep,9.679757,1.66397,-1.268927,-0.055424,0.026113,-0.014389,43479
2025-02-26 01:57:38.489458,sleep,9.691729,1.644817,-1.223437,-0.055158,0.024515,-0.014123,43445
2025-02-26 01:57:38.489458,sleep,9.684546,1.661576,-1.235408,-0.055424,0.023449,-0.014655,43385
2025-02-26 01:57:38.489458,sleep,9.689334,1.651999,-1.247379,-0.055158,0.023715,-0.014655,43406
2025-02-26 01:57:38.489458,sleep,9.696517,1.656788,-1.247379,-0.053292,0.021583,-0.015721,43344
2025-02-26 01:57:38.489458,sleep,9.67018,1.642422,-1.240196,-0.055957,0.020518,-0.013856,43368
2025-02-26 01:57:38.489458,sleep,9.696517,1.673547,-1.237802,-0.053559,0.02638,-0.01359,43428
2025-02-26 01:57:38.489458,sleep,9.665392,1.659182,-1.23062,-0.055158,0.023715,-0.014123,43380
2025-02-26 01:57:38.489458,sleep,9.653421,1.642422,-1.242591,-0.055158,0.022116,-0.013323,43369
2025-02-26 01:57:38.489458,sleep,9.694122,1.651999,-1.264138,-0.055424,0.026113,-0.01279,43410
2025-02-26 01:57:38.489458,sleep,9.682152,1.644817,-1.244985,-0.055691,0.026646,-0.014655,43434
2025-02-26 01:57:38.489458,sleep,9.679757,1.661576,-1.254562,-0.055424,0.021317,-0.013856,43414
2025-02-26 01:57:38.491471,sleep,9.684546,1.649605,-1.247379,-0.055424,0.022383,-0.014389,43395
2025-02-26 01:57:38.491471,sleep,9.674969,1.656788,-1.252167,-0.055424,0.023715,-0.015188,43387
2025-02-26 01:57:38.491471,sleep,9.674969,1.661576,-1.247379,-0.053825,0.021583,-0.015721,43352
2025-02-26 01:57:38.491471,sleep,9.662998,1.644817,-1.23062,-0.054092,0.020518,-0.015455,43321
2025-02-26 01:57:38.491471,sleep,9.674969,1.649605,-1.266533,-0.054625,0.023182,-0.014655,43384
2025-02-26 01:57:38.491471,sleep,9.677363,1.654393,-1.254562,-0.054625,0.023982,-0.014922,43367
2025-02-26 01:57:38.491471,sleep,9.660604,1.642422,-1.237802,-0.054625,0.020784,-0.015455,43366
2025-02-26 01:57:38.491471,sleep,9.691729,1.654393,-1.235408,-0.053825,0.023182,-0.015721,43362
2025-02-26 01:57:38.491471,sleep,9.682152,1.654393,-1.240196,-0.055158,0.024248,-0.013856,43385
2025-02-26 01:57:38.491471,sleep,9.655815,1.651999,-1.221043,-0.055158,0.025847,-0.01359,43458
2025-02-26 01:57:38.491471,sleep,9.679757,1.654393,-1.233014,-0.055158,0.022916,-0.014655,43466
2025-02-26 01:57:38.491471,sleep,9.689334,1.668759,-1.254562,-0.055158,0.023449,-0.014655,43439
2025-02-26 01:57:38.491471,sleep,9.667787,1.656788,-1.256956,-0.054092,0.023715,-0.014389,43411
2025-02-26 01:57:38.491471,sleep,9.694122,1.656788,-1.235408,-0.054891,0.022649,-0.014123,43357
2025-02-26 01:57:38.491471,sleep,9.677363,1.656788,-1.252167,-0.053559,0.024515,-0.01279,43318
2025-02-26 01:57:38.491471,sleep,9.677363,1.647211,-1.25935,-0.054092,0.024248,-0.013856,43346
2025-02-26 01:57:38.491471,sleep,9.672575,1.656788,-1.240196,-0.055691,0.024248,-0.014389,43391
2025-02-26 01:57:38.491471,sleep,9.679757,1.666364,-1.240196,-0.055158,0.022383,-0.014389,43399
2025-02-26 01:57:38.491471,sleep,9.651027,1.654393,-1.261744,-0.054625,0.023182,-0.014655,43416
2025-02-26 01:57:38.491471,sleep,9.677363,1.666364,-1.273715,-0.055158,0.022916,-0.014922,43328
2025-02-26 01:57:38.491471,sleep,9.67018,1.659182,-1.271321,-0.055158,0.022649,-0.014123,43325
2025-02-26 01:57:38.491471,sleep,9.703699,1.651999,-1.228225,-0.055424,0.023182,-0.014655,43290
2025-02-26 01:57:38.491471,sleep,9.715671,1.656788,-1.254562,-0.054625,0.024248,-0.014123,43248
2025-02-26 01:57:38.491471,sleep,9.68694,1.647211,-1.225831,-0.054891,0.022916,-0.014123,43238
2025-02-26 01:57:38.491471,sleep,9.684546,1.666364,-1.25935,-0.054625,0.021317,-0.014655,43230
2025-02-26 01:57:38.491471,sleep,9.684546,1.651999,-1.233014,-0.054891,0.023715,-0.013856,43255
2025-02-26 01:57:38.491471,sleep,9.691729,1.671153,-1.25935,-0.054092,0.022383,-0.014655,43298
2025-02-26 01:57:38.491471,sleep,9.667787,1.659182,-1.249773,-0.054625,0.022116,-0.013856,43277
2025-02-26 01:57:38.491471,sleep,9.689334,1.630451,-1.23062,-0.054358,0.024248,-0.013856,43283
2025-02-26 01:57:38.491471,sleep,9.667787,1.659182,-1.247379,-0.055158,0.023715,-0.014123,43249
2025-02-26 01:57:38.491471,sleep,9.696517,1.647211,-1.254562,-0.055424,0.023715,-0.014922,43250
2025-02-26 01:57:38.491471,sleep,9.679757,1.654393,-1.247379,-0.054891,0.024248,-0.013323,43304
2025-02-26 01:57:38.491471,sleep,9.677363,1.644817,-1.233014,-0.055424,0.022916,-0.014389,43300
2025-02-26 01:57:38.491471,sleep,9.677363,1.661576,-1.223437,-0.055691,0.025314,-0.013856,43316
2025-02-26 01:57:38.491471,sleep,9.679757,1.642422,-1.244985,-0.055691,0.022383,-0.013057,43253
2025-02-26 01:57:38.491471,sleep,9.665392,1.649605,-1.223437,-0.054891,0.023449,-0.014123,43217
2025-02-26 01:57:38.491471,sleep,9.696517,1.654393,-1.247379,-0.054625,0.021583,-0.014922,43192
2025-02-26 01:57:38.491471,sleep,9.698911,1.644817,-1.25935,-0.053292,0.018919,-0.015455,43198
2025-02-26 01:57:38.491471,sleep,9.667787,1.656788,-1.247379,-0.052227,0.019185,-0.015455,43176
2025-02-26 01:57:38.491471,sleep,9.696517,1.649605,-1.266533,-0.054358,0.022649,-0.014922,43173
2025-02-26 01:57:38.491471,sleep,9.68694,1.647211,-1.280898,-0.055957,0.027979,-0.01359,43101
2025-02-26 01:57:38.491471,sleep,9.698911,1.651999,-1.252167,-0.055158,0.025047,-0.015455,43047
2025-02-26 01:57:38.491471,sleep,9.701305,1.651999,-1.204283,-0.056757,0.018919,-0.017054,42996
2025-02-26 01:57:38.491471,sleep,9.684546,1.647211,-1.23062,-0.054625,0.012257,-0.019185,42924
2025-02-26 01:57:38.491471,sleep,9.674969,1.642422,-1.244985,-0.055957,0.012257,-0.019985,42756
2025-02-26 01:57:38.491471,sleep,9.679757,1.666364,-1.256956,-0.054891,0.013323,-0.018119,42559
2025-02-26 01:57:38.491471,sleep,9.677363,1.654393,-1.25935,-0.05649,0.020784,-0.016521,42434
2025-02-26 01:57:38.491471,sleep,9.672575,1.649605,-1.247379,-0.055424,0.023715,-0.015721,42389
2025-02-26 01:57:38.491471,sleep,9.67018,1.659182,-1.197101,-0.054358,0.021583,-0.015721,42388
2025-02-26 01:57:38.491471,sleep,9.660604,1.659182,-1.276109,-0.054358,0.021583,-0.014389,42477
2025-02-26 01:57:38.491471,sleep,9.674969,1.659182,-1.295263,-0.054358,0.025047,-0.013856,42475
2025-02-26 01:57:38.491471,sleep,9.660604,1.656788,-1.264138,-0.054625,0.026113,-0.013323,42502
2025-02-26 01:57:38.491471,sleep,9.67018,1.654393,-1.273715,-0.055158,0.025847,-0.014389,42502
2025-02-26 01:57:38.491471,sleep,9.665392,1.651999,-1.252167,-0.055424,0.024515,-0.014922,42587
2025-02-26 01:57:38.491471,sleep,9.698911,1.647211,-1.240196,-0.053559,0.024248,-0.014922,42597
2025-02-26 01:57:38.491471,sleep,9.667787,1.651999,-1.268927,-0.054092,0.019185,-0.015988,42572
2025-02-26 01:57:38.491471,sleep,9.682152,1.675941,-1.240196,-0.055957,0.024515,-0.013057,42551
2025-02-26 01:57:38.491471,sleep,9.694122,1.661576,-1.256956,-0.054625,0.027979,-0.013057,42517
2025-02-26 01:57:38.491471,sleep,9.674969,1.647211,-1.278504,-0.054625,0.022649,-0.014123,42441
2025-02-26 01:57:38.491471,sleep,9.653421,1.666364,-1.249773,-0.054891,0.023449,-0.01359,42460
2025-02-26 01:57:38.491471,sleep,9.696517,1.649605,-1.247379,-0.055158,0.026113,-0.01359,42510
2025-02-26 01:57:38.491471,sleep,9.682152,1.66397,-1.240196,-0.055424,0.02558,-0.014389,42529
2025-02-26 01:57:38.491471,sleep,9.662998,1.647211,-1.25935,-0.056224,0.021583,-0.01359,42559
2025-02-26 01:57:38.491471,sleep,9.677363,1.644817,-1.273715,-0.056757,0.024515,-0.014922,42513
2025-02-26 01:57:38.491471,sleep,9.679757,1.647211,-1.244985,-0.054625,0.024248,-0.014123,42483
2025-02-26 01:57:38.491471,sleep,9.660604,1.656788,-1.264138,-0.054092,0.020518,-0.014655,42441
2025-02-26 01:57:38.491471,sleep,9.662998,1.661576,-1.244985,-0.054891,0.022116,-0.015721,42398
2025-02-26 01:57:38.491471,sleep,9.665392,1.637634,-1.249773,-0.054358,0.023982,-0.015988,42349
2025-02-26 01:57:38.491471,sleep,9.667787,1.659182,-1.228225,-0.054891,0.022383,-0.015188,42353
2025-02-26 01:57:38.491471,sleep,9.679757,1.649605,-1.216254,-0.054358,0.022916,-0.014123,42352
2025-02-26 01:57:38.491471,sleep,9.672575,1.647211,-1.271321,-0.054625,0.02558,-0.014389,42410
2025-02-26 01:57:38.491471,sleep,9.689334,1.642422,-1.264138,-0.055691,0.02638,-0.014655,42487
2025-02-26 01:57:38.491471,sleep,9.682152,1.668759,-1.256956,-0.055158,0.023982,-0.014389,42499
2025-02-26 01:57:38.491471,sleep,9.672575,1.644817,-1.233014,-0.054358,0.025047,-0.014123,42512
2025-02-26 01:57:38.491471,sleep,9.672575,1.647211,-1.247379,-0.055424,0.023982,-0.014123,42519
2025-02-26 01:57:38.491471,sleep,9.679757,1.656788,-1.256956,-0.053825,0.022916,-0.014655,42531
2025-02-26 01:57:38.491471,sleep,9.684546,1.644817,-1.244985,-0.054092,0.024781,-0.014389,42568
2025-02-26 01:57:38.491471,sleep,9.689334,1.659182,-1.244985,-0.054358,0.024248,-0.014655,42618
2025-02-26 01:57:38.491471,sleep,9.713276,1.66397,-1.256956,-0.054891,0.024248,-0.013323,42611
2025-02-26 01:57:38.491471,sleep,9.694122,1.678335,-1.261744,-0.054625,0.024781,-0.013323,42607
2025-02-26 01:57:38.491471,sleep,9.677363,1.659182,-1.233014,-0.055424,0.023715,-0.01359,42535
2025-02-26 01:57:38.491471,sleep,9.674969,1.642422,-1.247379,-0.054625,0.023982,-0.014922,42519
2025-02-26 01:57:38.491471,sleep,9.68694,1.666364,-1.242591,-0.054358,0.023182,-0.014655,42527
