Timestamp,Label,AccelX,AccelY,AccelZ,GyroX,GyroY,GyroZ,IR
2025-02-26 01:01:52.338628,sleep,9.861717,1.077391,-0.905008,-0.055957,0.024248,-0.014123,117134
2025-02-26 01:01:52.338628,sleep,9.842564,1.070208,-0.909797,-0.055158,0.023449,-0.015188,116994
2025-02-26 01:01:52.338628,sleep,9.849746,1.067814,-0.919373,-0.055691,0.023715,-0.014389,117009
2025-02-26 01:01:52.338628,sleep,9.842564,1.070208,-0.905008,-0.054625,0.023715,-0.014123,117059
2025-02-26 01:01:52.338628,sleep,9.849746,1.079785,-0.921768,-0.055424,0.024781,-0.014123,117043
2025-02-26 01:01:52.338628,sleep,9.85214,1.067814,-0.878672,-0.055424,0.024248,-0.014389,116994
2025-02-26 01:01:52.338628,sleep,9.859323,1.063026,-0.90022,-0.055158,0.023715,-0.014389,117278
2025-02-26 01:01:52.338628,sleep,9.85214,1.084573,-0.897826,-0.055957,0.023715,-0.014389,117311
2025-02-26 01:01:52.338628,sleep,9.835381,1.070208,-0.897826,-0.055158,0.024781,-0.014389,117320
2025-02-26 01:01:52.338628,sleep,9.864111,1.046266,-0.909797,-0.055158,0.023449,-0.013856,117360
2025-02-26 01:01:52.338628,sleep,9.854534,1.04866,-0.933739,-0.055158,0.023449,-0.014655,117355
2025-02-26 01:01:52.338628,sleep,9.837775,1.070208,-0.912191,-0.05649,0.023982,-0.014389,117499
2025-02-26 01:01:52.338628,sleep,9.868899,1.070208,-0.914585,-0.054891,0.023182,-0.014655,117500
2025-02-26 01:01:52.338628,sleep,9.837775,1.063026,-0.909797,-0.055424,0.024781,-0.014655,117470
2025-02-26 01:01:52.338628,sleep,9.835381,1.077391,-0.912191,-0.055424,0.023982,-0.014655,117425
2025-02-26 01:01:52.338628,sleep,9.847352,1.082179,-0.902614,-0.055691,0.023182,-0.015455,117437
2025-02-26 01:01:52.338628,sleep,9.847352,1.074997,-0.866701,-0.05649,0.024515,-0.014922,117449
2025-02-26 01:01:52.338628,sleep,9.832987,1.06542,-0.888249,-0.055957,0.023449,-0.014922,117484
2025-02-26 01:01:52.338628,sleep,9.837775,1.046266,-0.897826,-0.055424,0.022649,-0.015188,117509
2025-02-26 01:01:52.338628,sleep,9.844957,1.072602,-0.916979,-0.055691,0.024515,-0.014655,117478
2025-02-26 01:01:52.338628,sleep,9.861717,1.082179,-0.890643,-0.055957,0.023982,-0.015721,117541
2025-02-26 01:01:52.338628,sleep,9.847352,1.077391,-0.912191,-0.055691,0.023449,-0.014655,117485
2025-02-26 01:01:52.338628,sleep,9.835381,1.077391,-0.905008,-0.054625,0.023449,-0.014389,117485
2025-02-26 01:01:52.338628,sleep,9.866506,1.070208,-0.893037,-0.054092,0.023982,-0.015721,117447
2025-02-26 01:01:52.338628,sleep,9.861717,1.077391,-0.905008,-0.055158,0.024248,-0.013856,117482
2025-02-26 01:01:52.338628,sleep,9.830592,1.091756,-0.897826,-0.055424,0.022916,-0.014922,117506
2025-02-26 01:01:52.338628,sleep,9.849746,1.079785,-0.905008,-0.054358,0.025047,-0.014655,117485
2025-02-26 01:01:52.338628,sleep,9.864111,1.079785,-0.919373,-0.055424,0.023715,-0.014389,117626
2025-02-26 01:01:52.338628,sleep,9.847352,1.084573,-0.902614,-0.054358,0.024781,-0.01359,117641
2025-02-26 01:01:52.338628,sleep,9.854534,1.051055,-0.885855,-0.054891,0.022649,-0.014922,117506
2025-02-26 01:01:52.338628,sleep,9.847352,1.067814,-0.919373,-0.054625,0.02185,-0.014389,117679
2025-02-26 01:01:52.338628,sleep,9.854534,1.086968,-0.926556,-0.055691,0.025314,-0.014655,117705
2025-02-26 01:01:52.338628,sleep,9.840169,1.084573,-0.888249,-0.055957,0.023982,-0.013057,117742
2025-02-26 01:01:52.338628,sleep,9.835381,1.077391,-0.919373,-0.055158,0.020784,-0.015721,117696
2025-02-26 01:01:52.338628,sleep,9.844957,1.070208,-0.890643,-0.053825,0.022116,-0.015721,117385
2025-02-26 01:01:52.338628,sleep,9.840169,1.058237,-0.914585,-0.055957,0.023715,-0.014389,116920
2025-02-26 01:01:52.338628,sleep,9.825804,1.070208,-0.924162,-0.056757,0.025047,-0.014922,116355
2025-02-26 01:01:52.338628,sleep,9.844957,1.067814,-0.905008,-0.057023,0.025047,-0.013856,115986
2025-02-26 01:01:52.338628,sleep,9.837775,1.060631,-0.866701,-0.054891,0.022916,-0.014123,115789
2025-02-26 01:01:52.338628,sleep,9.861717,1.074997,-0.914585,-0.055691,0.022649,-0.015188,115762
2025-02-26 01:01:52.338628,sleep,9.837775,1.074997,-0.907402,-0.055424,0.022383,-0.014123,115890
2025-02-26 01:01:52.338628,sleep,9.859323,1.06542,-0.936133,-0.054358,0.021317,-0.014655,115957
2025-02-26 01:01:52.338628,sleep,9.840169,1.070208,-0.912191,-0.055158,0.022383,-0.014655,115971
2025-02-26 01:01:52.338628,sleep,9.849746,1.070208,-0.893037,-0.055424,0.024248,-0.014123,116047
2025-02-26 01:01:52.338628,sleep,9.835381,1.055843,-0.916979,-0.055691,0.023449,-0.014922,116122
2025-02-26 01:01:52.338628,sleep,9.847352,1.067814,-0.914585,-0.056224,0.025847,-0.014389,116212
2025-02-26 01:01:52.338628,sleep,9.856929,1.06542,-0.907402,-0.055691,0.02558,-0.014389,116227
2025-02-26 01:01:52.338628,sleep,9.854534,1.074997,-0.90022,-0.055424,0.022916,-0.014123,116292
2025-02-26 01:01:52.338628,sleep,9.849746,1.089362,-0.912191,-0.055691,0.02638,-0.014655,116353
2025-02-26 01:01:52.338628,sleep,9.844957,1.067814,-0.905008,-0.05649,0.02638,-0.013057,116503
2025-02-26 01:01:52.338628,sleep,9.85214,1.067814,-0.909797,-0.055957,0.023982,-0.013323,116611
2025-02-26 01:01:52.338628,sleep,9.85214,1.086968,-0.902614,-0.054358,0.022116,-0.014389,116704
2025-02-26 01:01:52.338628,sleep,9.849746,1.053449,-0.909797,-0.055424,0.02185,-0.016254,116781
2025-02-26 01:01:52.338628,sleep,9.856929,1.084573,-0.919373,-0.055158,0.022649,-0.014123,116753
2025-02-26 01:01:52.338628,sleep,9.85214,1.089362,-0.905008,-0.055957,0.024248,-0.013856,116779
2025-02-26 01:01:52.338628,sleep,9.85214,1.089362,-0.905008,-0.056757,0.025847,-0.014389,116753
2025-02-26 01:01:52.338628,sleep,9.844957,1.072602,-0.909797,-0.056224,0.025314,-0.014123,116739
2025-02-26 01:01:52.338628,sleep,9.842564,1.06542,-0.92895,-0.055424,0.024248,-0.014655,116900
2025-02-26 01:01:52.338628,sleep,9.856929,1.063026,-0.921768,-0.055957,0.023715,-0.014655,116876
2025-02-26 01:01:52.338628,sleep,9.842564,1.082179,-0.897826,-0.055158,0.023982,-0.014123,116831
2025-02-26 01:01:52.338628,sleep,9.835381,1.077391,-0.902614,-0.055424,0.023182,-0.014922,116835
2025-02-26 01:01:52.338628,sleep,9.861717,1.067814,-0.907402,-0.055424,0.023449,-0.01359,116862
2025-02-26 01:01:52.338628,sleep,9.842564,1.079785,-0.907402,-0.055158,0.024248,-0.014123,116913
2025-02-26 01:01:52.338628,sleep,9.830592,1.070208,-0.926556,-0.054625,0.024515,-0.014389,117007
2025-02-26 01:01:52.338628,sleep,9.842564,1.074997,-0.902614,-0.055424,0.024515,-0.014922,117083
2025-02-26 01:01:52.338628,sleep,9.859323,1.070208,-0.890643,-0.055957,0.024515,-0.014389,117068
2025-02-26 01:01:52.338628,sleep,9.840169,1.077391,-0.888249,-0.056224,0.024515,-0.015188,117132
2025-02-26 01:01:52.338628,sleep,9.842564,1.074997,-0.878672,-0.055691,0.023715,-0.014389,117160
2025-02-26 01:01:52.338628,sleep,9.859323,1.06542,-0.921768,-0.055158,0.025047,-0.014655,117204
2025-02-26 01:01:52.338628,sleep,9.842564,1.077391,-0.919373,-0.055158,0.024248,-0.014922,117206
2025-02-26 01:01:52.338628,sleep,9.85214,1.072602,-0.916979,-0.055424,0.023982,-0.014655,117243
2025-02-26 01:01:52.338628,sleep,9.840169,1.067814,-0.873884,-0.055957,0.023715,-0.014123,117291
2025-02-26 01:01:52.338628,sleep,9.828198,1.063026,-0.905008,-0.055957,0.022649,-0.014389,117204
2025-02-26 01:01:52.338628,sleep,9.82341,1.074997,-0.905008,-0.055424,0.023982,-0.013856,117459
2025-02-26 01:01:52.338628,sleep,9.842564,1.058237,-0.888249,-0.055158,0.023449,-0.014123,117511
2025-02-26 01:01:52.338628,sleep,9.861717,1.077391,-0.905008,-0.055691,0.022649,-0.014922,117291
2025-02-26 01:01:52.338628,sleep,9.849746,1.063026,-0.897826,-0.055691,0.023449,-0.014123,117584
2025-02-26 01:01:52.338628,sleep,9.840169,1.072602,-0.936133,-0.056224,0.022649,-0.014655,117635
2025-02-26 01:01:52.338628,sleep,9.842564,1.084573,-0.897826,-0.055957,0.024248,-0.014922,117707
2025-02-26 01:01:52.338628,sleep,9.854534,1.067814,-0.921768,-0.055691,0.023715,-0.014389,117800
2025-02-26 01:01:52.338628,sleep,9.844957,1.06542,-0.890643,-0.055691,0.024515,-0.014123,117804
2025-02-26 01:01:52.338628,sleep,9.825804,1.072602,-0.909797,-0.055424,0.023715,-0.014389,117801
2025-02-26 01:01:52.338628,sleep,9.837775,1.051055,-0.92895,-0.055691,0.023982,-0.013856,117725
2025-02-26 01:01:52.338628,sleep,9.832987,1.072602,-0.909797,-0.055691,0.022116,-0.014655,117705
2025-02-26 01:01:52.338628,sleep,9.835381,1.070208,-0.907402,-0.055158,0.023982,-0.014123,117691
2025-02-26 01:01:52.338628,sleep,9.837775,1.074997,-0.914585,-0.054891,0.02185,-0.014123,117731
2025-02-26 01:01:52.338628,sleep,9.842564,1.077391,-0.921768,-0.054891,0.022116,-0.015188,117757
2025-02-26 01:01:52.338628,sleep,9.85214,1.063026,-0.916979,-0.055158,0.023449,-0.013856,117806
2025-02-26 01:01:52.338628,sleep,9.849746,1.072602,-0.90022,-0.055424,0.023182,-0.014389,117709
2025-02-26 01:01:52.338628,sleep,9.842564,1.084573,-0.895431,-0.055424,0.022916,-0.013856,117689
2025-02-26 01:01:52.338628,sleep,9.847352,1.072602,-0.926556,-0.055691,0.022649,-0.014389,117703
2025-02-26 01:01:52.338628,sleep,9.854534,1.074997,-0.909797,-0.055158,0.023982,-0.015188,117682
2025-02-26 01:01:52.338628,sleep,9.837775,1.063026,-0.924162,-0.055424,0.023182,-0.01359,117717
2025-02-26 01:01:52.338628,sleep,9.85214,1.060631,-0.893037,-0.055691,0.024515,-0.013856,117634
2025-02-26 01:01:52.338628,sleep,9.835381,1.06542,-0.897826,-0.055691,0.023449,-0.014123,117682
2025-02-26 01:01:52.338628,sleep,9.837775,1.077391,-0.876278,-0.054891,0.023182,-0.015721,117691
2025-02-26 01:01:52.338628,sleep,9.828198,1.077391,-0.905008,-0.056224,0.022116,-0.014389,117614
2025-02-26 01:01:52.338628,sleep,9.835381,1.072602,-0.888249,-0.055957,0.024515,-0.014655,117732
2025-02-26 01:01:52.338628,sleep,9.85214,1.067814,-0.897826,-0.055158,0.023182,-0.015721,117771
2025-02-26 01:01:52.338628,sleep,9.847352,1.055843,-0.881066,-0.053026,0.020784,-0.015455,117721
2025-02-26 01:01:52.338628,sleep,9.840169,1.058237,-0.924162,-0.054625,0.022383,-0.014655,117391
2025-02-26 01:01:52.338628,sleep,9.828198,1.082179,-0.912191,-0.056224,0.023182,-0.014655,117170
2025-02-26 01:01:52.338628,sleep,9.840169,1.074997,-0.919373,-0.056757,0.024515,-0.014655,116640
2025-02-26 01:01:52.338628,sleep,9.85214,1.067814,-0.897826,-0.055691,0.022116,-0.015721,116291
2025-02-26 01:01:52.338628,sleep,9.835381,1.077391,-0.893037,-0.055424,0.021583,-0.015188,116000
2025-02-26 01:01:52.338628,sleep,9.866506,1.070208,-0.907402,-0.054891,0.022649,-0.014389,115858
2025-02-26 01:01:52.338628,sleep,9.840169,1.053449,-0.897826,-0.055691,0.022116,-0.014655,115862
2025-02-26 01:01:52.338628,sleep,9.842564,1.086968,-0.890643,-0.054891,0.022116,-0.014655,115984
2025-02-26 01:01:52.338628,sleep,9.840169,1.077391,-0.907402,-0.054092,0.022116,-0.015721,116114
2025-02-26 01:01:52.338628,sleep,9.840169,1.067814,-0.916979,-0.054891,0.025047,-0.014123,116227
2025-02-26 01:01:52.338628,sleep,9.849746,1.051055,-0.912191,-0.055158,0.023982,-0.014389,116267
2025-02-26 01:01:52.338628,sleep,9.864111,1.063026,-0.902614,-0.055424,0.024515,-0.013856,116321
2025-02-26 01:01:52.338628,sleep,9.840169,1.079785,-0.869095,-0.055957,0.024515,-0.014123,116410
2025-02-26 01:01:52.338628,sleep,9.840169,1.074997,-0.873884,-0.055158,0.023182,-0.014655,116403
2025-02-26 01:01:52.338628,sleep,9.837775,1.053449,-0.893037,-0.055691,0.024248,-0.013856,116451
2025-02-26 01:01:52.338628,sleep,9.85214,1.070208,-0.902614,-0.054891,0.024515,-0.014389,116542
2025-02-26 01:01:52.338628,sleep,9.847352,1.055843,-0.885855,-0.055424,0.022916,-0.014389,116675
2025-02-26 01:01:52.338628,sleep,9.837775,1.072602,-0.873884,-0.053559,0.022116,-0.015188,116722
2025-02-26 01:01:52.338628,sleep,9.849746,1.079785,-0.893037,-0.054092,0.02185,-0.014922,116822
2025-02-26 01:01:52.338628,sleep,9.85214,1.074997,-0.924162,-0.054625,0.022116,-0.014655,116813
2025-02-26 01:01:52.338628,sleep,9.844957,1.067814,-0.921768,-0.055158,0.023182,-0.014655,116675
2025-02-26 01:01:52.338628,sleep,9.859323,1.070208,-0.905008,-0.055957,0.024515,-0.014655,116740
2025-02-26 01:01:52.338628,sleep,9.832987,1.053449,-0.88346,-0.056224,0.023449,-0.01359,116723
2025-02-26 01:01:52.338628,sleep,9.842564,1.058237,-0.881066,-0.055691,0.024248,-0.014389,116738
2025-02-26 01:01:52.338628,sleep,9.847352,1.051055,-0.92895,-0.056224,0.022649,-0.013323,116790
2025-02-26 01:01:52.338628,sleep,9.856929,1.074997,-0.885855,-0.055691,0.023715,-0.015188,116797
2025-02-26 01:01:52.338628,sleep,9.842564,1.089362,-0.902614,-0.054891,0.023449,-0.014655,116780
2025-02-26 01:01:52.338628,sleep,9.842564,1.079785,-0.905008,-0.056224,0.023182,-0.014922,116747
2025-02-26 01:01:52.338628,sleep,9.85214,1.074997,-0.88346,-0.054625,0.023449,-0.014389,116806
2025-02-26 01:01:52.338628,sleep,9.830592,1.072602,-0.909797,-0.054358,0.023715,-0.014655,116785
2025-02-26 01:01:52.338628,sleep,9.835381,1.072602,-0.881066,-0.055691,0.023449,-0.015188,116859
2025-02-26 01:01:52.338628,sleep,9.847352,1.070208,-0.90022,-0.055158,0.024515,-0.014389,116970
2025-02-26 01:01:52.338628,sleep,9.859323,1.077391,-0.890643,-0.054625,0.023982,-0.014922,117044
2025-02-26 01:01:52.338628,sleep,9.849746,1.053449,-0.905008,-0.055691,0.022916,-0.014389,117013
2025-02-26 01:01:52.338628,sleep,9.854534,1.067814,-0.914585,-0.054891,0.022383,-0.014389,117054
2025-02-26 01:01:52.338628,sleep,9.840169,1.074997,-0.897826,-0.055158,0.022916,-0.014123,117087
2025-02-26 01:01:52.338628,sleep,9.856929,1.053449,-0.88346,-0.055158,0.024248,-0.014655,117145
2025-02-26 01:01:52.338628,sleep,9.847352,1.06542,-0.895431,-0.054891,0.023449,-0.014389,117138
2025-02-26 01:01:52.338628,sleep,9.837775,1.055843,-0.907402,-0.055424,0.024248,-0.014922,117232
2025-02-26 01:01:52.338628,sleep,9.837775,1.077391,-0.878672,-0.055158,0.023449,-0.014123,117261
2025-02-26 01:01:52.338628,sleep,9.847352,1.070208,-0.909797,-0.054891,0.023182,-0.014389,117327
2025-02-26 01:01:52.338628,sleep,9.837775,1.060631,-0.912191,-0.055691,0.022116,-0.014389,117385
2025-02-26 01:01:52.338628,sleep,9.844957,1.074997,-0.924162,-0.055691,0.022916,-0.015188,117424
2025-02-26 01:01:52.338628,sleep,9.837775,1.082179,-0.90022,-0.055424,0.022916,-0.015188,117429
2025-02-26 01:01:52.338628,sleep,9.837775,1.086968,-0.902614,-0.055957,0.023449,-0.014389,117431
2025-02-26 01:01:52.338628,sleep,9.835381,1.060631,-0.909797,-0.054625,0.023982,-0.014655,117503
2025-02-26 01:01:52.338628,sleep,9.847352,1.072602,-0.888249,-0.055158,0.023449,-0.014922,117587
2025-02-26 01:01:52.338628,sleep,9.85214,1.067814,-0.924162,-0.055957,0.023449,-0.015188,117604
2025-02-26 01:01:52.338628,sleep,9.849746,1.067814,-0.890643,-0.055158,0.022649,-0.014922,117602
2025-02-26 01:01:52.338628,sleep,9.837775,1.063026,-0.88346,-0.055424,0.022383,-0.014389,117545
2025-02-26 01:01:52.338628,sleep,9.854534,1.072602,-0.895431,-0.054625,0.024515,-0.013856,117510
2025-02-26 01:01:52.338628,sleep,9.861717,1.043872,-0.893037,-0.054891,0.024248,-0.014922,117492
2025-02-26 01:01:52.338628,sleep,9.849746,1.060631,-0.914585,-0.055158,0.023715,-0.014922,117521
2025-02-26 01:01:52.338628,sleep,9.849746,1.058237,-0.914585,-0.055158,0.024248,-0.014389,117575
2025-02-26 01:01:52.338628,sleep,9.85214,1.072602,-0.919373,-0.054358,0.023449,-0.014123,117608
2025-02-26 01:01:52.338628,sleep,9.840169,1.070208,-0.907402,-0.054358,0.02185,-0.014123,117553
2025-02-26 01:01:52.338628,sleep,9.840169,1.082179,-0.907402,-0.055691,0.024515,-0.014123,117547
2025-02-26 01:01:52.338628,sleep,9.840169,1.070208,-0.902614,-0.055158,0.023982,-0.015188,117559
2025-02-26 01:01:52.338628,sleep,9.868899,1.077391,-0.938527,-0.054891,0.023715,-0.014922,117560
2025-02-26 01:01:52.338628,sleep,9.856929,1.067814,-0.869095,-0.054358,0.023182,-0.015988,117521
2025-02-26 01:01:52.338628,sleep,9.849746,1.082179,-0.897826,-0.054092,0.022383,-0.014922,117515
2025-02-26 01:01:52.338628,sleep,9.830592,1.070208,-0.888249,-0.055424,0.023715,-0.01359,117536
2025-02-26 01:01:52.338628,sleep,9.856929,1.063026,-0.924162,-0.055158,0.023715,-0.014123,117560
2025-02-26 01:01:52.338628,sleep,9.859323,1.082179,-0.893037,-0.055158,0.021051,-0.015988,117478
2025-02-26 01:01:52.338628,sleep,9.871294,1.074997,-0.921768,-0.054891,0.022116,-0.015188,117337
2025-02-26 01:01:52.338628,sleep,9.859323,1.084573,-0.950498,-0.055957,0.024248,-0.015721,117536
2025-02-26 01:01:52.338628,sleep,9.849746,1.063026,-0.88346,-0.056224,0.024248,-0.014922,116320
2025-02-26 01:01:52.338628,sleep,9.866506,1.070208,-0.881066,-0.055424,0.023715,-0.01359,115966
2025-02-26 01:01:52.338628,sleep,9.849746,1.082179,-0.912191,-0.055957,0.023449,-0.014655,115669
2025-02-26 01:01:52.338628,sleep,9.864111,1.072602,-0.895431,-0.055424,0.023182,-0.014655,115750
2025-02-26 01:01:52.338628,sleep,9.842564,1.06542,-0.905008,-0.055957,0.023182,-0.014922,115786
2025-02-26 01:01:52.338628,sleep,9.840169,1.067814,-0.916979,-0.055691,0.023182,-0.013856,115870
2025-02-26 01:01:52.340636,sleep,9.844957,1.058237,-0.905008,-0.054358,0.022649,-0.015188,115880
2025-02-26 01:01:52.340636,sleep,9.847352,1.06542,-0.914585,-0.054625,0.021051,-0.015188,115936
2025-02-26 01:01:52.340636,sleep,9.856929,1.070208,-0.907402,-0.055691,0.022916,-0.015455,115971
2025-02-26 01:01:52.340636,sleep,9.832987,1.079785,-0.912191,-0.055424,0.024515,-0.015188,116038
2025-02-26 01:01:52.340636,sleep,9.85214,1.063026,-0.905008,-0.055957,0.025847,-0.014655,116075
2025-02-26 01:01:52.340636,sleep,9.842564,1.077391,-0.933739,-0.054625,0.022649,-0.015455,116196
2025-02-26 01:01:52.340636,sleep,9.840169,1.086968,-0.921768,-0.056224,0.02638,-0.013856,116281
2025-02-26 01:01:52.340636,sleep,9.849746,1.055843,-0.885855,-0.056224,0.02558,-0.013057,116341
2025-02-26 01:01:52.340636,sleep,9.825804,1.058237,-0.888249,-0.054891,0.023449,-0.014389,116355
2025-02-26 01:01:52.340636,sleep,9.840169,1.079785,-0.895431,-0.054358,0.023982,-0.014922,116459
2025-02-26 01:01:52.340636,sleep,9.847352,1.101333,-0.90022,-0.054625,0.022916,-0.014922,116474
2025-02-26 01:01:52.340636,sleep,9.828198,1.084573,-0.916979,-0.054092,0.020784,-0.014655,116516
2025-02-26 01:01:52.340636,sleep,9.873688,1.053449,-0.916979,-0.055158,0.023449,-0.014922,116434
2025-02-26 01:01:52.340636,sleep,9.85214,1.070208,-0.909797,-0.055424,0.025047,-0.013856,116441
2025-02-26 01:01:52.340636,sleep,9.856929,1.067814,-0.895431,-0.056224,0.023449,-0.01359,116458
2025-02-26 01:01:52.340636,sleep,9.849746,1.060631,-0.907402,-0.055957,0.023715,-0.013856,116468
2025-02-26 01:01:52.340636,sleep,9.849746,1.074997,-0.916979,-0.055424,0.023715,-0.013856,116486
2025-02-26 01:01:52.340636,sleep,9.837775,1.060631,-0.921768,-0.055158,0.022649,-0.014389,116534
2025-02-26 01:01:52.340636,sleep,9.847352,1.077391,-0.914585,-0.055424,0.022383,-0.014389,116560
2025-02-26 01:01:52.340636,sleep,9.847352,1.077391,-0.90022,-0.055424,0.023449,-0.014389,116623
2025-02-26 01:01:52.340636,sleep,9.854534,1.079785,-0.921768,-0.05649,0.023449,-0.014123,116706
2025-02-26 01:01:52.340636,sleep,9.859323,1.067814,-0.914585,-0.054625,0.023182,-0.014389,116778
2025-02-26 01:01:52.340636,sleep,9.854534,1.072602,-0.909797,-0.055691,0.024248,-0.014922,116803
2025-02-26 01:01:52.340636,sleep,9.873688,1.060631,-0.933739,-0.054358,0.023982,-0.014922,116831
2025-02-26 01:01:52.340636,sleep,9.864111,1.063026,-0.897826,-0.055957,0.022649,-0.014389,116815
2025-02-26 01:01:52.340636,sleep,9.842564,1.070208,-0.909797,-0.055158,0.023182,-0.015455,116829
2025-02-26 01:01:52.340636,sleep,9.844957,1.070208,-0.902614,-0.055424,0.023982,-0.014922,116898
2025-02-26 01:01:52.340636,sleep,9.837775,1.074997,-0.909797,-0.054625,0.024248,-0.014389,116979
2025-02-26 01:01:52.340636,sleep,9.840169,1.063026,-0.902614,-0.054358,0.024781,-0.015721,116906
2025-02-26 01:01:52.340636,sleep,9.832987,1.067814,-0.890643,-0.053559,0.022116,-0.014123,117136
2025-02-26 01:01:52.340636,sleep,9.864111,1.06542,-0.895431,-0.055691,0.023449,-0.014922,117204
2025-02-26 01:01:52.340636,sleep,9.840169,1.077391,-0.909797,-0.055424,0.023182,-0.013856,117218
2025-02-26 01:01:52.340636,sleep,9.832987,1.074997,-0.912191,-0.055158,0.024781,-0.014922,117152
2025-02-26 01:01:52.340636,sleep,9.876082,1.058237,-0.914585,-0.055957,0.023715,-0.014123,117224
2025-02-26 01:01:52.340636,sleep,9.859323,1.070208,-0.90022,-0.055424,0.023715,-0.015188,117198
2025-02-26 01:01:52.340636,sleep,9.840169,1.079785,-0.926556,-0.055424,0.024248,-0.014655,117239
2025-02-26 01:01:52.340636,sleep,9.854534,1.067814,-0.885855,-0.054358,0.023982,-0.015188,117306
2025-02-26 01:01:52.340636,sleep,9.854534,1.074997,-0.907402,-0.054891,0.023982,-0.014922,117352
2025-02-26 01:01:52.340636,sleep,9.85214,1.060631,-0.926556,-0.055158,0.024515,-0.014922,117317
2025-02-26 01:01:52.340636,sleep,9.849746,1.074997,-0.916979,-0.055691,0.023982,-0.014389,117311
2025-02-26 01:01:52.340636,sleep,9.85214,1.072602,-0.902614,-0.055691,0.023449,-0.014123,117329
2025-02-26 01:01:52.340636,sleep,9.842564,1.070208,-0.888249,-0.055158,0.024781,-0.015455,117309
2025-02-26 01:01:52.340636,sleep,9.85214,1.077391,-0.912191,-0.055158,0.022916,-0.014655,117380
2025-02-26 01:01:52.340636,sleep,9.859323,1.079785,-0.905008,-0.055158,0.023715,-0.014123,117338
2025-02-26 01:01:52.340636,sleep,9.85214,1.077391,-0.88346,-0.055158,0.023982,-0.014123,117299
2025-02-26 01:01:52.340636,sleep,9.854534,1.084573,-0.869095,-0.055424,0.022916,-0.014389,117350
2025-02-26 01:01:52.340636,sleep,9.85214,1.063026,-0.888249,-0.055158,0.024515,-0.014922,117404
2025-02-26 01:01:52.340636,sleep,9.837775,1.072602,-0.890643,-0.054358,0.023715,-0.015188,117423
2025-02-26 01:01:52.340636,sleep,9.849746,1.06542,-0.88346,-0.054092,0.023715,-0.014655,117429
2025-02-26 01:01:52.340636,sleep,9.825804,1.089362,-0.905008,-0.055158,0.023982,-0.014655,117429
2025-02-26 01:01:52.340636,sleep,9.85214,1.070208,-0.878672,-0.055691,0.023715,-0.013856,117480
2025-02-26 01:01:52.340636,sleep,9.85214,1.067814,-0.905008,-0.054891,0.023449,-0.014655,117558
2025-02-26 01:01:52.340636,sleep,9.864111,1.082179,-0.905008,-0.055424,0.024515,-0.014922,117543
2025-02-26 01:01:52.340636,sleep,9.849746,1.060631,-0.905008,-0.053825,0.024248,-0.015721,117542
2025-02-26 01:01:52.340636,sleep,9.842564,1.067814,-0.914585,-0.054891,0.02185,-0.015988,117579
2025-02-26 01:01:52.340636,sleep,9.844957,1.06542,-0.902614,-0.054891,0.024248,-0.014655,117529
2025-02-26 01:01:52.340636,sleep,9.847352,1.06542,-0.912191,-0.055957,0.026113,-0.013323,117521
2025-02-26 01:01:52.340636,sleep,9.861717,1.072602,-0.88346,-0.055957,0.023982,-0.015188,117500
2025-02-26 01:01:52.340636,sleep,9.842564,1.063026,-0.92895,-0.054891,0.020784,-0.015455,117393
2025-02-26 01:01:52.340636,sleep,9.847352,1.079785,-0.90022,-0.054625,0.021583,-0.014922,117057
2025-02-26 01:01:52.340636,sleep,9.809045,1.070208,-0.912191,-0.055424,0.023715,-0.014922,116599
2025-02-26 01:01:52.340636,sleep,9.849746,1.060631,-0.890643,-0.055957,0.025314,-0.015188,116050
2025-02-26 01:01:52.340636,sleep,9.868899,1.084573,-0.905008,-0.055424,0.023715,-0.014123,115665
2025-02-26 01:01:52.340636,sleep,9.825804,1.082179,-0.912191,-0.055158,0.023182,-0.014389,115499
2025-02-26 01:01:52.340636,sleep,9.835381,1.072602,-0.926556,-0.054891,0.023715,-0.014655,115401
2025-02-26 01:01:52.340636,sleep,9.847352,1.089362,-0.90022,-0.055957,0.022383,-0.015455,115401
2025-02-26 01:01:52.340636,sleep,9.849746,1.072602,-0.912191,-0.055691,0.02185,-0.014123,115490
2025-02-26 01:01:52.340636,sleep,9.837775,1.072602,-0.926556,-0.055158,0.023449,-0.015188,115619
2025-02-26 01:01:52.340636,sleep,9.85214,1.074997,-0.933739,-0.055424,0.023182,-0.014123,115718
2025-02-26 01:01:52.340636,sleep,9.844957,1.06542,-0.895431,-0.05649,0.026113,-0.013323,115881
2025-02-26 01:01:52.340636,sleep,9.85214,1.082179,-0.897826,-0.055957,0.025847,-0.014123,115969
2025-02-26 01:01:52.340636,sleep,9.847352,1.079785,-0.885855,-0.055691,0.026646,-0.01359,116032
2025-02-26 01:01:52.340636,sleep,9.847352,1.058237,-0.909797,-0.055424,0.02185,-0.013856,116104
2025-02-26 01:01:52.340636,sleep,9.844957,1.06542,-0.897826,-0.055424,0.026646,-0.014123,116158
2025-02-26 01:01:52.340636,sleep,9.847352,1.053449,-0.876278,-0.057289,0.02638,-0.01359,116369
2025-02-26 01:01:52.340636,sleep,9.861717,1.096544,-0.92895,-0.055691,0.022383,-0.013856,116506
2025-02-26 01:01:52.340636,sleep,9.854534,1.067814,-0.912191,-0.054625,0.023182,-0.015455,116569
2025-02-26 01:01:52.340636,sleep,9.849746,1.06542,-0.905008,-0.054891,0.022649,-0.014389,116511
2025-02-26 01:01:52.340636,sleep,9.85214,1.084573,-0.914585,-0.054625,0.023982,-0.014389,116547
2025-02-26 01:01:52.340636,sleep,9.856929,1.072602,-0.90022,-0.055957,0.024515,-0.014389,116442
2025-02-26 01:01:52.340636,sleep,9.835381,1.070208,-0.888249,-0.055691,0.02638,-0.013323,116464
2025-02-26 01:01:52.340636,sleep,9.844957,1.067814,-0.897826,-0.055957,0.02558,-0.014123,116514
2025-02-26 01:01:52.340636,sleep,9.85214,1.079785,-0.905008,-0.055424,0.026113,-0.014389,116512
2025-02-26 01:01:52.340636,sleep,9.830592,1.084573,-0.893037,-0.055691,0.023715,-0.014655,116522
2025-02-26 01:01:52.340636,sleep,9.842564,1.06542,-0.924162,-0.055424,0.022916,-0.013856,116565
2025-02-26 01:01:52.340636,sleep,9.859323,1.067814,-0.878672,-0.054891,0.023449,-0.014922,116521
2025-02-26 01:01:52.340636,sleep,9.847352,1.072602,-0.912191,-0.054891,0.023715,-0.014655,116537
2025-02-26 01:01:52.340636,sleep,9.864111,1.082179,-0.90022,-0.055158,0.023982,-0.014389,116532
2025-02-26 01:01:52.340636,sleep,9.837775,1.063026,-0.897826,-0.054891,0.023982,-0.013323,116603
2025-02-26 01:01:52.340636,sleep,9.842564,1.072602,-0.878672,-0.055957,0.024248,-0.014655,116658
2025-02-26 01:01:52.340636,sleep,9.837775,1.063026,-0.92895,-0.055957,0.024781,-0.01359,116754
2025-02-26 01:01:52.340636,sleep,9.849746,1.084573,-0.919373,-0.055158,0.025047,-0.014922,116850
2025-02-26 01:01:52.340636,sleep,9.844957,1.063026,-0.881066,-0.055424,0.024781,-0.014655,116933
2025-02-26 01:01:52.340636,sleep,9.842564,1.058237,-0.895431,-0.055158,0.025847,-0.014123,116658
2025-02-26 01:01:52.340636,sleep,9.847352,1.063026,-0.926556,-0.055424,0.024248,-0.014655,116973
2025-02-26 01:01:52.340636,sleep,9.832987,1.063026,-0.907402,-0.055691,0.024515,-0.014123,117070
2025-02-26 01:01:52.340636,sleep,9.849746,1.09415,-0.895431,-0.055957,0.022916,-0.014389,117182
2025-02-26 01:01:52.340636,sleep,9.832987,1.072602,-0.873884,-0.054891,0.023982,-0.014655,117241
2025-02-26 01:01:52.340636,sleep,9.847352,1.082179,-0.921768,-0.054891,0.025047,-0.015188,117232
2025-02-26 01:01:52.340636,sleep,9.861717,1.070208,-0.909797,-0.055158,0.023449,-0.014655,117349
2025-02-26 01:01:52.340636,sleep,9.856929,1.072602,-0.92895,-0.054891,0.023182,-0.014655,117318
2025-02-26 01:01:52.340636,sleep,9.859323,1.058237,-0.888249,-0.055158,0.023715,-0.014123,117285
2025-02-26 01:01:52.340636,sleep,9.828198,1.063026,-0.936133,-0.054625,0.023449,-0.015455,117332
2025-02-26 01:01:52.340636,sleep,9.840169,1.063026,-0.912191,-0.054891,0.023982,-0.014123,117370
2025-02-26 01:01:52.340636,sleep,9.847352,1.060631,-0.890643,-0.055158,0.023715,-0.013856,117405
2025-02-26 01:01:52.340636,sleep,9.873688,1.060631,-0.897826,-0.056224,0.023182,-0.015188,117483
2025-02-26 01:01:52.340636,sleep,9.842564,1.082179,-0.914585,-0.055158,0.023982,-0.014655,117444
2025-02-26 01:01:52.340636,sleep,9.849746,1.070208,-0.90022,-0.055691,0.022649,-0.015721,117411
2025-02-26 01:01:52.340636,sleep,9.854534,1.067814,-0.905008,-0.055158,0.022649,-0.014655,117407
2025-02-26 01:01:52.340636,sleep,9.859323,1.086968,-0.895431,-0.054891,0.023715,-0.015455,117423
2025-02-26 01:01:52.340636,sleep,9.847352,1.09415,-0.90022,-0.055158,0.023715,-0.014922,117379
2025-02-26 01:01:52.340636,sleep,9.830592,1.079785,-0.897826,-0.055158,0.024515,-0.014922,117395
2025-02-26 01:01:52.340636,sleep,9.847352,1.060631,-0.897826,-0.055691,0.022649,-0.014922,117398
2025-02-26 01:01:52.340636,sleep,9.832987,1.082179,-0.888249,-0.055158,0.024248,-0.015188,117455
2025-02-26 01:01:52.340636,sleep,9.837775,1.070208,-0.876278,-0.055158,0.023982,-0.014389,117513
2025-02-26 01:01:52.340636,sleep,9.856929,1.063026,-0.919373,-0.054891,0.023449,-0.01359,117526
2025-02-26 01:01:52.340636,sleep,9.825804,1.070208,-0.926556,-0.055691,0.024515,-0.01359,117512
2025-02-26 01:01:52.340636,sleep,9.854534,1.070208,-0.902614,-0.054625,0.023182,-0.014389,117551
2025-02-26 01:01:52.340636,sleep,9.837775,1.072602,-0.876278,-0.055424,0.023449,-0.01359,117611
2025-02-26 01:01:52.340636,sleep,9.82341,1.077391,-0.890643,-0.055158,0.022916,-0.014655,117647
2025-02-26 01:01:52.340636,sleep,9.828198,1.074997,-0.861913,-0.055158,0.023715,-0.013856,117688
2025-02-26 01:01:52.340636,sleep,9.847352,1.058237,-0.905008,-0.055691,0.024248,-0.014655,117641
2025-02-26 01:01:52.340636,sleep,9.837775,1.051055,-0.902614,-0.054625,0.022649,-0.015188,117581
2025-02-26 01:01:52.340636,sleep,9.859323,1.072602,-0.893037,-0.055424,0.021583,-0.014922,117379
2025-02-26 01:01:52.340636,sleep,9.837775,1.072602,-0.912191,-0.055957,0.022916,-0.014655,117039
2025-02-26 01:01:52.340636,sleep,9.849746,1.070208,-0.897826,-0.056757,0.024515,-0.014655,116486
2025-02-26 01:01:52.340636,sleep,9.844957,1.072602,-0.909797,-0.056224,0.02558,-0.014922,116062
2025-02-26 01:01:52.340636,sleep,9.868899,1.070208,-0.905008,-0.055957,0.023982,-0.015188,115743
