Timestamp,Label,AccelX,AccelY,AccelZ,GyroX,GyroY,GyroZ,IR
2025-02-26 01:34:35.217782,sleep,10.05325,0.385466,1.781286,-0.054358,0.024248,-0.014123,78423
2025-02-26 01:34:35.217782,sleep,10.06522,0.380678,1.817199,-0.054625,0.024248,-0.014655,78537
2025-02-26 01:34:35.217782,sleep,10.0341,0.373495,1.778892,-0.054891,0.023182,-0.014123,78460
2025-02-26 01:34:35.217782,sleep,10.05565,0.387861,1.781286,-0.054891,0.02558,-0.014655,78448
2025-02-26 01:34:35.217782,sleep,10.05086,0.37589,1.788469,-0.055691,0.025847,-0.014389,78551
2025-02-26 01:34:35.217782,sleep,10.07001,0.390255,1.776498,-0.054358,0.020784,-0.013856,78544
2025-02-26 01:34:35.217782,sleep,10.06283,0.378284,1.771709,-0.054625,0.020784,-0.015721,78512
2025-02-26 01:34:35.217782,sleep,10.05804,0.385466,1.778892,-0.054891,0.025047,-0.014123,78422
2025-02-26 01:34:35.217782,sleep,10.06044,0.37589,1.805228,-0.055424,0.022916,-0.014389,78294
2025-02-26 01:34:35.217782,sleep,10.04128,0.366313,1.78368,-0.055957,0.021051,-0.015455,78183
2025-02-26 01:34:35.217782,sleep,10.04846,0.395043,1.781286,-0.054891,0.022383,-0.014922,78157
2025-02-26 01:34:35.217782,sleep,10.03649,0.378284,1.774103,-0.054891,0.023182,-0.015455,78124
2025-02-26 01:34:35.217782,sleep,10.05565,0.35913,1.75495,-0.055158,0.024248,-0.014123,78148
2025-02-26 01:34:35.217782,sleep,10.06283,0.392649,1.778892,-0.055957,0.023182,-0.015188,78157
2025-02-26 01:34:35.217782,sleep,10.04846,0.366313,1.752556,-0.055957,0.023449,-0.014922,78088
2025-02-26 01:34:35.217782,sleep,10.05565,0.380678,1.759738,-0.054891,0.024248,-0.014389,78091
2025-02-26 01:34:35.217782,sleep,10.05804,0.366313,1.795651,-0.055424,0.023715,-0.014123,78071
2025-02-26 01:34:35.217782,sleep,10.05086,0.383072,1.78368,-0.054625,0.025047,-0.014655,78075
2025-02-26 01:34:35.217782,sleep,10.06044,0.356736,1.769315,-0.053825,0.023449,-0.014389,78028
2025-02-26 01:34:35.217782,sleep,10.05086,0.395043,1.802834,-0.055158,0.021317,-0.015188,78047
2025-02-26 01:34:35.217782,sleep,10.03649,0.387861,1.771709,-0.054891,0.026113,-0.014389,78080
2025-02-26 01:34:35.217782,sleep,10.04607,0.378284,1.774103,-0.055957,0.024515,-0.013856,78075
2025-02-26 01:34:35.217782,sleep,10.04128,0.373495,1.781286,-0.055158,0.022649,-0.015188,78190
2025-02-26 01:34:35.217782,sleep,10.04846,0.387861,1.778892,-0.054625,0.02185,-0.014655,78229
2025-02-26 01:34:35.217782,sleep,10.04128,0.361524,1.793257,-0.054625,0.024781,-0.013856,78237
2025-02-26 01:34:35.217782,sleep,10.04368,0.378284,1.781286,-0.054092,0.023982,-0.014389,78218
2025-02-26 01:34:35.217782,sleep,10.05565,0.390255,1.774103,-0.055158,0.023982,-0.013856,78225
2025-02-26 01:34:35.217782,sleep,10.05804,0.385466,1.795651,-0.055424,0.023982,-0.014123,78289
2025-02-26 01:34:35.217782,sleep,10.04846,0.387861,1.762132,-0.055158,0.023182,-0.015455,78312
2025-02-26 01:34:35.217782,sleep,10.05325,0.366313,1.793257,-0.055158,0.024781,-0.014655,78318
2025-02-26 01:34:35.217782,sleep,10.05804,0.378284,1.78368,-0.054891,0.023182,-0.014389,78300
2025-02-26 01:34:35.217782,sleep,10.04846,0.368707,1.781286,-0.055957,0.023449,-0.014123,78203
2025-02-26 01:34:35.217782,sleep,10.04846,0.373495,1.788469,-0.055957,0.024248,-0.014922,78213
2025-02-26 01:34:35.217782,sleep,10.04607,0.390255,1.762132,-0.054625,0.024781,-0.014123,78197
2025-02-26 01:34:35.217782,sleep,10.03889,0.383072,1.774103,-0.054625,0.024248,-0.014655,78209
2025-02-26 01:34:35.217782,sleep,10.0341,0.363919,1.769315,-0.054891,0.023449,-0.014389,78265
2025-02-26 01:34:35.217782,sleep,10.04368,0.392649,1.759738,-0.055424,0.022916,-0.014655,78265
2025-02-26 01:34:35.217782,sleep,10.04368,0.385466,1.771709,-0.055158,0.023715,-0.014922,78225
2025-02-26 01:34:35.217782,sleep,10.05565,0.385466,1.769315,-0.055158,0.024515,-0.014655,78213
2025-02-26 01:34:35.217782,sleep,10.04607,0.390255,1.781286,-0.054891,0.024781,-0.014389,78210
2025-02-26 01:34:35.217782,sleep,10.06044,0.371101,1.776498,-0.054092,0.023449,-0.014655,78205
2025-02-26 01:34:35.217782,sleep,10.07241,0.349553,1.766921,-0.055424,0.02185,-0.015455,78209
2025-02-26 01:34:35.217782,sleep,10.07001,0.387861,1.788469,-0.054891,0.025314,-0.014389,78189
2025-02-26 01:34:35.217782,sleep,10.05086,0.371101,1.776498,-0.055957,0.024248,-0.014389,78193
2025-02-26 01:34:35.217782,sleep,10.04368,0.383072,1.795651,-0.055158,0.023182,-0.015188,78195
2025-02-26 01:34:35.217782,sleep,10.04368,0.371101,1.790863,-0.055424,0.023982,-0.014123,78237
2025-02-26 01:34:35.217782,sleep,10.04607,0.371101,1.781286,-0.054625,0.023449,-0.014655,78247
2025-02-26 01:34:35.217782,sleep,10.06283,0.390255,1.790863,-0.054891,0.023715,-0.014655,78193
2025-02-26 01:34:35.217782,sleep,10.05804,0.407014,1.798046,-0.054625,0.023982,-0.014389,78275
2025-02-26 01:34:35.217782,sleep,10.05804,0.373495,1.776498,-0.054625,0.024515,-0.014922,78306
2025-02-26 01:34:35.217782,sleep,10.05804,0.373495,1.776498,-0.055424,0.023182,-0.01359,78283
2025-02-26 01:34:35.217782,sleep,10.05325,0.378284,1.774103,-0.054625,0.023449,-0.013856,78384
2025-02-26 01:34:35.217782,sleep,10.02692,0.366313,1.786075,-0.055158,0.024515,-0.014655,78384
2025-02-26 01:34:35.217782,sleep,10.05086,0.385466,1.788469,-0.055424,0.023715,-0.015455,78372
2025-02-26 01:34:35.217782,sleep,10.05565,0.387861,1.781286,-0.054625,0.024515,-0.015188,78330
2025-02-26 01:34:35.217782,sleep,10.0772,0.383072,1.774103,-0.054358,0.023449,-0.014389,78286
2025-02-26 01:34:35.217782,sleep,10.04846,0.380678,1.776498,-0.054891,0.022116,-0.014655,78275
2025-02-26 01:34:35.217782,sleep,10.04846,0.387861,1.802834,-0.055424,0.023182,-0.016254,78304
2025-02-26 01:34:35.217782,sleep,10.05804,0.378284,1.795651,-0.054891,0.02558,-0.014389,78340
2025-02-26 01:34:35.217782,sleep,10.06283,0.373495,1.771709,-0.054891,0.022649,-0.014389,78298
2025-02-26 01:34:35.217782,sleep,10.06283,0.380678,1.766921,-0.054358,0.023715,-0.014655,78286
2025-02-26 01:34:35.217782,sleep,10.06522,0.395043,1.781286,-0.054358,0.022916,-0.014123,78256
2025-02-26 01:34:35.217782,sleep,10.03649,0.366313,1.798046,-0.054092,0.024515,-0.014389,78231
2025-02-26 01:34:35.217782,sleep,10.04128,0.383072,1.78368,-0.054891,0.023449,-0.015455,78202
2025-02-26 01:34:35.217782,sleep,10.05325,0.373495,1.78368,-0.053559,0.02558,-0.014389,78201
2025-02-26 01:34:35.217782,sleep,10.0748,0.37589,1.805228,-0.054092,0.025314,-0.014922,78184
2025-02-26 01:34:35.217782,sleep,10.07001,0.368707,1.762132,-0.054625,0.020784,-0.014655,78146
2025-02-26 01:34:35.217782,sleep,10.05325,0.385466,1.778892,-0.055158,0.020251,-0.015721,78179
2025-02-26 01:34:35.217782,sleep,10.04846,0.373495,1.766921,-0.054625,0.023449,-0.014922,78170
2025-02-26 01:34:35.217782,sleep,10.05086,0.392649,1.766921,-0.055158,0.022383,-0.015188,78096
2025-02-26 01:34:35.217782,sleep,10.04846,0.383072,1.75495,-0.054891,0.023182,-0.015721,78005
2025-02-26 01:34:35.217782,sleep,10.04128,0.378284,1.812411,-0.055691,0.022649,-0.015188,77955
2025-02-26 01:34:35.217782,sleep,10.04368,0.378284,1.776498,-0.055691,0.021583,-0.014123,77915
2025-02-26 01:34:35.217782,sleep,10.05325,0.373495,1.762132,-0.054358,0.023182,-0.014123,77996
2025-02-26 01:34:35.217782,sleep,10.05086,0.363919,1.826776,-0.055158,0.022116,-0.015188,77991
2025-02-26 01:34:35.217782,sleep,10.03649,0.385466,1.790863,-0.055424,0.022649,-0.015188,77979
2025-02-26 01:34:35.217782,sleep,10.04368,0.378284,1.769315,-0.055691,0.023715,-0.014389,77985
2025-02-26 01:34:35.217782,sleep,10.04368,0.392649,1.790863,-0.055424,0.023982,-0.01359,77880
2025-02-26 01:34:35.217782,sleep,10.07001,0.383072,1.802834,-0.055158,0.023449,-0.014389,77864
2025-02-26 01:34:35.217782,sleep,10.05325,0.366313,1.793257,-0.054891,0.023982,-0.015455,77893
2025-02-26 01:34:35.217782,sleep,10.0317,0.395043,1.778892,-0.054625,0.021583,-0.016254,77902
2025-02-26 01:34:35.217782,sleep,10.02931,0.390255,1.750161,-0.055424,0.026113,-0.013323,77946
2025-02-26 01:34:35.217782,sleep,10.02692,0.395043,1.781286,-0.055691,0.025314,-0.013856,77950
2025-02-26 01:34:35.217782,sleep,10.05325,0.390255,1.764527,-0.055158,0.022116,-0.014389,77934
2025-02-26 01:34:35.217782,sleep,10.04368,0.385466,1.762132,-0.054625,0.023449,-0.014123,77930
2025-02-26 01:34:35.217782,sleep,10.05804,0.380678,1.781286,-0.054625,0.023715,-0.015188,77900
2025-02-26 01:34:35.217782,sleep,10.05804,0.390255,1.766921,-0.054625,0.02185,-0.014123,77875
2025-02-26 01:34:35.217782,sleep,10.04607,0.385466,1.750161,-0.054092,0.024515,-0.014389,77835
2025-02-26 01:34:35.217782,sleep,10.05804,0.392649,1.781286,-0.054625,0.024248,-0.014655,77833
2025-02-26 01:34:35.217782,sleep,10.05325,0.380678,1.776498,-0.055158,0.022916,-0.014922,77900
2025-02-26 01:34:35.217782,sleep,10.05325,0.395043,1.778892,-0.054891,0.025314,-0.014922,77935
2025-02-26 01:34:35.217782,sleep,10.05565,0.390255,1.786075,-0.054625,0.023182,-0.014123,77956
2025-02-26 01:34:35.217782,sleep,10.06522,0.392649,1.781286,-0.054891,0.023715,-0.014655,77966
2025-02-26 01:34:35.217782,sleep,10.05804,0.378284,1.766921,-0.055158,0.024515,-0.015188,77962
2025-02-26 01:34:35.217782,sleep,10.05325,0.371101,1.78368,-0.055158,0.023715,-0.014123,77949
2025-02-26 01:34:35.217782,sleep,10.04607,0.361524,1.73819,-0.055691,0.023449,-0.014655,78004
2025-02-26 01:34:35.217782,sleep,10.05804,0.385466,1.788469,-0.054891,0.023982,-0.015188,78025
2025-02-26 01:34:35.217782,sleep,10.04368,0.37589,1.774103,-0.054092,0.025047,-0.014389,78070
2025-02-26 01:34:35.217782,sleep,10.04607,0.411803,1.786075,-0.055158,0.023182,-0.014123,78073
2025-02-26 01:34:35.217782,sleep,10.05325,0.385466,1.769315,-0.054891,0.023982,-0.013856,77993
2025-02-26 01:34:35.217782,sleep,10.04368,0.363919,1.764527,-0.055691,0.023449,-0.014123,77986
2025-02-26 01:34:35.217782,sleep,10.0748,0.361524,1.764527,-0.055424,0.023715,-0.014389,77942
2025-02-26 01:34:35.217782,sleep,10.07001,0.392649,1.757344,-0.054092,0.023449,-0.014123,77991
2025-02-26 01:34:35.217782,sleep,10.03649,0.380678,1.762132,-0.055424,0.023449,-0.014922,78020
2025-02-26 01:34:35.217782,sleep,10.04846,0.380678,1.788469,-0.054625,0.022383,-0.014389,78041
2025-02-26 01:34:35.217782,sleep,10.06044,0.373495,1.764527,-0.055424,0.024515,-0.014655,77991
2025-02-26 01:34:35.217782,sleep,10.04607,0.40462,1.778892,-0.055158,0.022916,-0.014655,77969
2025-02-26 01:34:35.217782,sleep,10.03649,0.402226,1.802834,-0.055158,0.022916,-0.014655,77990
2025-02-26 01:34:35.217782,sleep,10.04846,0.399832,1.778892,-0.054092,0.023715,-0.014655,77959
2025-02-26 01:34:35.217782,sleep,10.06044,0.373495,1.778892,-0.055957,0.024248,-0.015188,77910
2025-02-26 01:34:35.217782,sleep,10.04368,0.40462,1.795651,-0.055691,0.023182,-0.014922,77918
2025-02-26 01:34:35.217782,sleep,10.0748,0.383072,1.795651,-0.053825,0.022916,-0.014389,77937
2025-02-26 01:34:35.217782,sleep,10.04368,0.378284,1.757344,-0.054625,0.023715,-0.013856,77938
2025-02-26 01:34:35.217782,sleep,10.07241,0.387861,1.745373,-0.054358,0.022916,-0.013856,78026
2025-02-26 01:34:35.217782,sleep,10.05804,0.395043,1.786075,-0.054092,0.023715,-0.013856,78061
2025-02-26 01:34:35.217782,sleep,10.04607,0.387861,1.790863,-0.055158,0.023715,-0.014123,78049
2025-02-26 01:34:35.217782,sleep,10.05086,0.397437,1.762132,-0.054891,0.022649,-0.015188,78057
2025-02-26 01:34:35.217782,sleep,10.05804,0.397437,1.769315,-0.054625,0.024781,-0.014922,78062
2025-02-26 01:34:35.217782,sleep,10.04607,0.390255,1.795651,-0.055158,0.024515,-0.014655,78130
2025-02-26 01:34:35.217782,sleep,10.04607,0.378284,1.814805,-0.055424,0.023715,-0.015455,78137
2025-02-26 01:34:35.217782,sleep,10.0341,0.380678,1.759738,-0.053825,0.024515,-0.015455,78170
2025-02-26 01:34:35.217782,sleep,10.04368,0.37589,1.764527,-0.054358,0.023449,-0.014655,78146
2025-02-26 01:34:35.217782,sleep,10.0317,0.378284,1.778892,-0.054625,0.02185,-0.014123,77959
2025-02-26 01:34:35.217782,sleep,10.07001,0.395043,1.745373,-0.055691,0.023449,-0.014389,78029
2025-02-26 01:34:35.217782,sleep,10.05804,0.402226,1.786075,-0.055424,0.025047,-0.014389,78036
2025-02-26 01:34:35.217782,sleep,10.05086,0.373495,1.795651,-0.055424,0.022649,-0.014655,78033
2025-02-26 01:34:35.217782,sleep,10.05325,0.390255,1.752556,-0.055158,0.024515,-0.014123,78081
2025-02-26 01:34:35.217782,sleep,10.05565,0.37589,1.769315,-0.055158,0.022383,-0.01359,78074
2025-02-26 01:34:35.217782,sleep,10.03889,0.40462,1.757344,-0.054358,0.025047,-0.013323,78049
2025-02-26 01:34:35.217782,sleep,10.04128,0.383072,1.781286,-0.054891,0.027712,-0.014123,78039
2025-02-26 01:34:35.217782,sleep,10.05565,0.378284,1.795651,-0.054891,0.023182,-0.014123,78026
2025-02-26 01:34:35.217782,sleep,10.03889,0.390255,1.75495,-0.054891,0.019452,-0.015188,77929
2025-02-26 01:34:35.217782,sleep,10.05086,0.387861,1.759738,-0.054358,0.023182,-0.015188,77862
2025-02-26 01:34:35.217782,sleep,10.05804,0.373495,1.757344,-0.055424,0.023715,-0.014922,77769
2025-02-26 01:34:35.217782,sleep,10.02452,0.387861,1.750161,-0.054092,0.022116,-0.014123,77695
2025-02-26 01:34:35.217782,sleep,10.04607,0.392649,1.781286,-0.054092,0.022383,-0.014922,77929
2025-02-26 01:34:35.217782,sleep,10.05565,0.380678,1.769315,-0.055158,0.022383,-0.015188,77654
2025-02-26 01:34:35.217782,sleep,10.06522,0.392649,1.757344,-0.055424,0.022649,-0.014389,77679
2025-02-26 01:34:35.217782,sleep,10.0341,0.37589,1.781286,-0.05649,0.022649,-0.014655,77621
2025-02-26 01:34:35.217782,sleep,10.0341,0.395043,1.771709,-0.055691,0.023715,-0.014655,77596
2025-02-26 01:34:35.217782,sleep,10.06283,0.37589,1.774103,-0.055424,0.023449,-0.014389,77611
2025-02-26 01:34:35.217782,sleep,10.05325,0.380678,1.778892,-0.054891,0.025314,-0.014655,77665
2025-02-26 01:34:35.217782,sleep,10.05325,0.385466,1.764527,-0.055957,0.024781,-0.014922,77732
2025-02-26 01:34:35.217782,sleep,10.01734,0.395043,1.766921,-0.054891,0.025047,-0.013856,77749
2025-02-26 01:34:35.217782,sleep,10.04846,0.380678,1.762132,-0.054625,0.022649,-0.014389,77747
2025-02-26 01:34:35.217782,sleep,10.02213,0.395043,1.745373,-0.055424,0.023982,-0.015188,77735
2025-02-26 01:34:35.217782,sleep,10.04607,0.387861,1.786075,-0.055424,0.027179,-0.01359,77762
2025-02-26 01:34:35.217782,sleep,10.04846,0.397437,1.740585,-0.054625,0.025314,-0.014389,77701
2025-02-26 01:34:35.217782,sleep,10.04128,0.383072,1.759738,-0.054891,0.022383,-0.014655,77709
2025-02-26 01:34:35.217782,sleep,10.06044,0.380678,1.769315,-0.055424,0.024248,-0.014922,77728
2025-02-26 01:34:35.217782,sleep,10.04128,0.378284,1.786075,-0.055424,0.023182,-0.014389,77783
2025-02-26 01:34:35.217782,sleep,10.05804,0.378284,1.75495,-0.054625,0.025047,-0.015188,77771
2025-02-26 01:34:35.217782,sleep,10.03889,0.390255,1.78368,-0.054891,0.025047,-0.014389,77762
2025-02-26 01:34:35.217782,sleep,10.04846,0.378284,1.786075,-0.055158,0.024248,-0.014922,77769
2025-02-26 01:34:35.217782,sleep,10.05086,0.368707,1.762132,-0.055158,0.023715,-0.014123,77759
2025-02-26 01:34:35.217782,sleep,10.0341,0.392649,1.759738,-0.055424,0.023715,-0.014389,77734
2025-02-26 01:34:35.217782,sleep,10.05086,0.385466,1.778892,-0.055424,0.024248,-0.014123,77701
2025-02-26 01:34:35.217782,sleep,10.05565,0.392649,1.781286,-0.055957,0.022649,-0.014655,77700
2025-02-26 01:34:35.217782,sleep,10.04368,0.373495,1.795651,-0.055957,0.023715,-0.014389,77730
2025-02-26 01:34:35.217782,sleep,10.04368,0.361524,1.793257,-0.055957,0.023182,-0.014123,77796
2025-02-26 01:34:35.217782,sleep,10.05086,0.361524,1.752556,-0.054891,0.024781,-0.015455,77854
2025-02-26 01:34:35.217782,sleep,10.04846,0.380678,1.790863,-0.054625,0.02558,-0.014389,77880
2025-02-26 01:34:35.217782,sleep,10.07001,0.383072,1.788469,-0.054891,0.023715,-0.014389,77890
2025-02-26 01:34:35.217782,sleep,10.02931,0.37589,1.771709,-0.054891,0.025314,-0.014389,77926
2025-02-26 01:34:35.217782,sleep,10.03649,0.378284,1.778892,-0.055957,0.024248,-0.013856,77946
2025-02-26 01:34:35.217782,sleep,10.0317,0.371101,1.764527,-0.054891,0.023715,-0.014389,78042
2025-02-26 01:34:35.217782,sleep,10.05086,0.385466,1.762132,-0.054891,0.024248,-0.01359,78038
2025-02-26 01:34:35.217782,sleep,10.04368,0.385466,1.771709,-0.054891,0.023182,-0.014389,78078
2025-02-26 01:34:35.217782,sleep,10.04368,0.380678,1.776498,-0.054891,0.023182,-0.013323,78028
2025-02-26 01:34:35.217782,sleep,10.05086,0.378284,1.766921,-0.055424,0.023715,-0.013323,78013
2025-02-26 01:34:35.217782,sleep,10.06044,0.37589,1.757344,-0.055158,0.023982,-0.014123,77954
2025-02-26 01:34:35.217782,sleep,10.04607,0.378284,1.778892,-0.054891,0.023449,-0.014123,77984
2025-02-26 01:34:35.217782,sleep,10.07241,0.378284,1.774103,-0.055691,0.023715,-0.015455,78007
2025-02-26 01:34:35.217782,sleep,10.05086,0.390255,1.776498,-0.055691,0.024781,-0.014655,78049
2025-02-26 01:34:35.217782,sleep,10.05565,0.37589,1.762132,-0.053825,0.023715,-0.014389,78063
2025-02-26 01:34:35.217782,sleep,10.05086,0.385466,1.764527,-0.055158,0.023449,-0.013856,78021
2025-02-26 01:34:35.217782,sleep,10.02452,0.383072,1.810017,-0.054891,0.023449,-0.015455,78024
2025-02-26 01:34:35.217782,sleep,10.05086,0.383072,1.778892,-0.055158,0.023715,-0.01359,77996
2025-02-26 01:34:35.217782,sleep,10.03649,0.385466,1.786075,-0.055424,0.023715,-0.014655,78097
2025-02-26 01:34:35.217782,sleep,10.0341,0.380678,1.781286,-0.055158,0.023449,-0.014389,78063
2025-02-26 01:34:35.217782,sleep,10.05325,0.40462,1.793257,-0.055424,0.024248,-0.014655,78017
2025-02-26 01:34:35.217782,sleep,10.04846,0.378284,1.798046,-0.055424,0.024515,-0.015188,78059
2025-02-26 01:34:35.217782,sleep,10.05804,0.407014,1.798046,-0.055158,0.024248,-0.015188,78100
2025-02-26 01:34:35.217782,sleep,10.04607,0.380678,1.795651,-0.054891,0.022916,-0.014922,78175
2025-02-26 01:34:35.217782,sleep,10.06283,0.378284,1.788469,-0.055691,0.023982,-0.014389,78152
2025-02-26 01:34:35.217782,sleep,10.04846,0.397437,1.762132,-0.055158,0.023449,-0.014655,78171
2025-02-26 01:34:35.217782,sleep,10.06283,0.383072,1.766921,-0.055424,0.024515,-0.013856,78181
2025-02-26 01:34:35.217782,sleep,10.05086,0.385466,1.795651,-0.054891,0.024515,-0.014922,78221
2025-02-26 01:34:35.217782,sleep,10.05565,0.361524,1.778892,-0.055158,0.023182,-0.014655,78312
2025-02-26 01:34:35.217782,sleep,10.05086,0.351948,1.793257,-0.055158,0.023182,-0.014389,78309
2025-02-26 01:34:35.217782,sleep,10.03649,0.35913,1.778892,-0.055957,0.024248,-0.014655,78289
2025-02-26 01:34:35.217782,sleep,10.03649,0.378284,1.78368,-0.055158,0.026646,-0.014655,78262
2025-02-26 01:34:35.217782,sleep,10.0772,0.368707,1.776498,-0.054625,0.024248,-0.014123,78222
2025-02-26 01:34:35.217782,sleep,10.05086,0.380678,1.80044,-0.054891,0.019452,-0.014655,78163
2025-02-26 01:34:35.217782,sleep,10.06762,0.385466,1.75495,-0.054891,0.023715,-0.014389,78188
2025-02-26 01:34:35.217782,sleep,10.0317,0.378284,1.80044,-0.054891,0.024781,-0.015455,78163
2025-02-26 01:34:35.217782,sleep,10.05804,0.37589,1.771709,-0.054625,0.02185,-0.014389,78083
2025-02-26 01:34:35.217782,sleep,10.04607,0.383072,1.771709,-0.055424,0.022116,-0.015188,77974
2025-02-26 01:34:35.217782,sleep,10.04368,0.37589,1.793257,-0.055691,0.024515,-0.014655,77887
2025-02-26 01:34:35.217782,sleep,10.05565,0.380678,1.778892,-0.055424,0.022116,-0.01359,77851
2025-02-26 01:34:35.217782,sleep,10.05565,0.380678,1.757344,-0.054092,0.022649,-0.014389,77932
2025-02-26 01:34:35.217782,sleep,10.06044,0.387861,1.798046,-0.054891,0.022916,-0.014922,77892
2025-02-26 01:34:35.217782,sleep,10.06283,0.378284,1.776498,-0.054891,0.023182,-0.01359,77888
2025-02-26 01:34:35.217782,sleep,10.04368,0.395043,1.771709,-0.055691,0.023715,-0.014389,77927
2025-02-26 01:34:35.217782,sleep,10.04846,0.385466,1.793257,-0.054625,0.023982,-0.013856,77984
2025-02-26 01:34:35.217782,sleep,10.04128,0.387861,1.807622,-0.054358,0.022916,-0.014655,78023
2025-02-26 01:34:35.217782,sleep,10.04607,0.387861,1.790863,-0.055691,0.023182,-0.014655,77953
2025-02-26 01:34:35.217782,sleep,10.04607,0.380678,1.771709,-0.054891,0.024515,-0.014123,77950
2025-02-26 01:34:35.217782,sleep,10.03889,0.392649,1.781286,-0.055424,0.026113,-0.013856,77971
2025-02-26 01:34:35.217782,sleep,10.04368,0.387861,1.786075,-0.055957,0.023182,-0.014922,78009
2025-02-26 01:34:35.217782,sleep,10.02213,0.373495,1.778892,-0.054891,0.021583,-0.015188,77960
2025-02-26 01:34:35.217782,sleep,10.06044,0.390255,1.762132,-0.054092,0.022116,-0.014389,77956
2025-02-26 01:34:35.217782,sleep,10.05565,0.392649,1.766921,-0.054358,0.023982,-0.014922,77941
2025-02-26 01:34:35.217782,sleep,10.05086,0.378284,1.745373,-0.055158,0.026113,-0.015188,77999
2025-02-26 01:34:35.217782,sleep,10.05325,0.378284,1.769315,-0.055158,0.026913,-0.014123,78040
2025-02-26 01:34:35.217782,sleep,10.04368,0.368707,1.805228,-0.055158,0.022916,-0.015188,78057
2025-02-26 01:34:35.217782,sleep,10.04368,0.390255,1.762132,-0.055957,0.024781,-0.014389,78072
2025-02-26 01:34:35.217782,sleep,10.05804,0.37589,1.75495,-0.055158,0.022916,-0.014389,78046
2025-02-26 01:34:35.217782,sleep,10.04128,0.387861,1.776498,-0.054891,0.023182,-0.014655,78071
2025-02-26 01:34:35.217782,sleep,10.05325,0.390255,1.807622,-0.055424,0.023715,-0.014922,78110
2025-02-26 01:34:35.217782,sleep,10.06762,0.37589,1.757344,-0.054625,0.023182,-0.015188,78165
2025-02-26 01:34:35.217782,sleep,10.04846,0.378284,1.764527,-0.054891,0.024515,-0.015455,78172
2025-02-26 01:34:35.217782,sleep,10.05565,0.368707,1.759738,-0.055691,0.023715,-0.015721,78127
2025-02-26 01:34:35.217782,sleep,10.05565,0.395043,1.762132,-0.054358,0.023182,-0.014655,78069
2025-02-26 01:34:35.217782,sleep,10.06044,0.390255,1.766921,-0.054625,0.023449,-0.014655,78057
2025-02-26 01:34:35.217782,sleep,10.04846,0.383072,1.774103,-0.055158,0.023182,-0.014922,78032
2025-02-26 01:34:35.217782,sleep,10.05086,0.392649,1.78368,-0.055158,0.023982,-0.014123,78064
2025-02-26 01:34:35.217782,sleep,10.02692,0.378284,1.764527,-0.055424,0.024515,-0.014922,78114
2025-02-26 01:34:35.217782,sleep,10.02692,0.380678,1.810017,-0.054358,0.023715,-0.014123,78092
2025-02-26 01:34:35.217782,sleep,10.04846,0.373495,1.793257,-0.054891,0.023982,-0.014922,78078
2025-02-26 01:34:35.217782,sleep,10.07241,0.383072,1.750161,-0.055691,0.024515,-0.014655,78057
2025-02-26 01:34:35.217782,sleep,10.05086,0.387861,1.798046,-0.055424,0.022916,-0.014123,78038
2025-02-26 01:34:35.217782,sleep,10.05565,0.390255,1.774103,-0.055691,0.023449,-0.014389,78027
2025-02-26 01:34:35.217782,sleep,10.05086,0.383072,1.764527,-0.055691,0.023182,-0.015188,78005
2025-02-26 01:34:35.217782,sleep,10.03889,0.383072,1.795651,-0.056224,0.023449,-0.015455,77991
2025-02-26 01:34:35.217782,sleep,10.06044,0.37589,1.778892,-0.054625,0.023182,-0.013856,78013
2025-02-26 01:34:35.217782,sleep,10.03649,0.385466,1.769315,-0.055158,0.022916,-0.015188,78076
2025-02-26 01:34:35.217782,sleep,10.05086,0.383072,1.781286,-0.054625,0.022383,-0.015188,78119
2025-02-26 01:34:35.217782,sleep,10.06283,0.371101,1.793257,-0.053292,0.023182,-0.014655,78150
2025-02-26 01:34:35.217782,sleep,10.0748,0.371101,1.790863,-0.054625,0.022649,-0.015188,78137
2025-02-26 01:34:35.217782,sleep,10.04607,0.378284,1.790863,-0.055158,0.022916,-0.014922,78105
2025-02-26 01:34:35.217782,sleep,10.06283,0.390255,1.788469,-0.053825,0.023449,-0.013856,78186
2025-02-26 01:34:35.217782,sleep,10.0317,0.390255,1.769315,-0.055424,0.023449,-0.014389,78221
2025-02-26 01:34:35.217782,sleep,10.05086,0.383072,1.764527,-0.054358,0.024781,-0.015188,78262
2025-02-26 01:34:35.217782,sleep,10.04368,0.361524,1.774103,-0.055957,0.022116,-0.015455,78221
2025-02-26 01:34:35.217782,sleep,10.05325,0.397437,1.778892,-0.055424,0.022383,-0.014922,78187
2025-02-26 01:34:35.217782,sleep,10.04368,0.395043,1.778892,-0.055691,0.021317,-0.015721,78072
2025-02-26 01:34:35.217782,sleep,10.04128,0.366313,1.764527,-0.055158,0.025047,-0.01359,78044
2025-02-26 01:34:35.217782,sleep,10.05804,0.356736,1.78368,-0.054358,0.024781,-0.014655,78068
2025-02-26 01:34:35.217782,sleep,10.07241,0.385466,1.80044,-0.054625,0.018119,-0.016787,78043
2025-02-26 01:34:35.217782,sleep,10.03889,0.399832,1.752556,-0.054092,0.019985,-0.015721,77952
2025-02-26 01:34:35.217782,sleep,10.05565,0.378284,1.781286,-0.055957,0.022116,-0.014922,77807
2025-02-26 01:34:35.217782,sleep,10.03889,0.35913,1.750161,-0.054891,0.02185,-0.015721,77676
2025-02-26 01:34:35.217782,sleep,10.04368,0.383072,1.778892,-0.054891,0.021583,-0.015455,77531
2025-02-26 01:34:35.217782,sleep,10.05325,0.385466,1.814805,-0.055957,0.022383,-0.015455,77395
2025-02-26 01:34:35.217782,sleep,10.04368,0.387861,1.786075,-0.055691,0.020784,-0.014922,77291
2025-02-26 01:34:35.217782,sleep,10.04846,0.380678,1.793257,-0.054891,0.021051,-0.014389,77218
2025-02-26 01:34:35.217782,sleep,10.03649,0.40462,1.73819,-0.055424,0.021583,-0.014922,77182
2025-02-26 01:34:35.217782,sleep,10.04607,0.402226,1.778892,-0.055957,0.022916,-0.015455,77201
2025-02-26 01:34:35.217782,sleep,10.05804,0.395043,1.78368,-0.054891,0.022649,-0.014389,77209
2025-02-26 01:34:35.217782,sleep,10.06522,0.383072,1.771709,-0.055424,0.023182,-0.014655,77211
2025-02-26 01:34:35.217782,sleep,10.03649,0.380678,1.762132,-0.054891,0.023449,-0.014123,77182
2025-02-26 01:34:35.217782,sleep,10.05565,0.37589,1.788469,-0.055424,0.02185,-0.015721,77199
2025-02-26 01:34:35.217782,sleep,10.05804,0.390255,1.769315,-0.055158,0.021583,-0.014922,77220
2025-02-26 01:34:35.217782,sleep,10.05325,0.397437,1.762132,-0.055424,0.026646,-0.014389,77261
2025-02-26 01:34:35.217782,sleep,10.0341,0.373495,1.771709,-0.054625,0.025314,-0.014655,77203
2025-02-26 01:34:35.217782,sleep,10.04607,0.371101,1.776498,-0.054625,0.020518,-0.014922,77307
2025-02-26 01:34:35.217782,sleep,10.04368,0.37589,1.798046,-0.054625,0.023715,-0.015455,77247
2025-02-26 01:34:35.217782,sleep,10.05325,0.380678,1.769315,-0.055691,0.022383,-0.015455,77190
2025-02-26 01:34:35.217782,sleep,10.05086,0.385466,1.788469,-0.055424,0.022916,-0.014389,77165
2025-02-26 01:34:35.217782,sleep,10.06522,0.390255,1.771709,-0.054891,0.02558,-0.013856,77157
2025-02-26 01:34:35.217782,sleep,10.05804,0.387861,1.764527,-0.054625,0.024248,-0.014389,77193
2025-02-26 01:34:35.217782,sleep,10.04368,0.366313,1.757344,-0.055424,0.023982,-0.014922,77219
2025-02-26 01:34:35.217782,sleep,10.05325,0.378284,1.786075,-0.054358,0.023715,-0.013856,77170
2025-02-26 01:34:35.217782,sleep,10.05565,0.37589,1.786075,-0.055158,0.023449,-0.015988,77166
2025-02-26 01:34:35.217782,sleep,10.03649,0.373495,1.778892,-0.055424,0.022916,-0.014922,77143
2025-02-26 01:34:35.217782,sleep,10.04607,0.387861,1.750161,-0.054625,0.024248,-0.014922,77160
2025-02-26 01:34:35.217782,sleep,10.04368,0.387861,1.740585,-0.055424,0.023182,-0.014123,77156
2025-02-26 01:34:35.217782,sleep,10.02931,0.387861,1.774103,-0.055691,0.023715,-0.014655,77119
2025-02-26 01:34:35.217782,sleep,10.03889,0.373495,1.781286,-0.055957,0.025314,-0.014922,77133
2025-02-26 01:34:35.217782,sleep,10.07241,0.380678,1.790863,-0.054625,0.024248,-0.013856,77122
2025-02-26 01:34:35.217782,sleep,10.05565,0.385466,1.769315,-0.054891,0.023182,-0.013057,77156
2025-02-26 01:34:35.217782,sleep,10.05565,0.35913,1.759738,-0.054625,0.024515,-0.014123,77222
2025-02-26 01:34:35.217782,sleep,10.05804,0.373495,1.747767,-0.055957,0.024515,-0.015188,77250
2025-02-26 01:34:35.217782,sleep,10.05804,0.395043,1.774103,-0.055158,0.023715,-0.015188,77122
2025-02-26 01:34:35.217782,sleep,10.06283,0.411803,1.757344,-0.054891,0.023182,-0.013856,77246
2025-02-26 01:34:35.217782,sleep,10.06762,0.373495,1.757344,-0.055957,0.022916,-0.013856,77252
2025-02-26 01:34:35.217782,sleep,10.05086,0.378284,1.766921,-0.054625,0.025847,-0.014123,77325
2025-02-26 01:34:35.217782,sleep,10.06762,0.390255,1.728614,-0.054891,0.024781,-0.014922,77355
2025-02-26 01:34:35.217782,sleep,10.05565,0.385466,1.788469,-0.054891,0.024248,-0.015721,77390
2025-02-26 01:34:35.217782,sleep,10.05325,0.390255,1.766921,-0.054891,0.023982,-0.01359,77351
2025-02-26 01:34:35.217782,sleep,10.05565,0.390255,1.774103,-0.054092,0.023449,-0.01359,77375
2025-02-26 01:34:35.217782,sleep,10.06044,0.380678,1.766921,-0.055424,0.023982,-0.014123,77269
2025-02-26 01:34:35.217782,sleep,10.04846,0.371101,1.766921,-0.054625,0.024515,-0.014389,77278
2025-02-26 01:34:35.217782,sleep,10.05325,0.383072,1.769315,-0.054891,0.025047,-0.014655,77295
2025-02-26 01:34:35.217782,sleep,10.06044,0.37589,1.75495,-0.054625,0.024781,-0.01359,77321
2025-02-26 01:34:35.217782,sleep,10.03649,0.387861,1.793257,-0.056757,0.023982,-0.015188,77372
2025-02-26 01:34:35.217782,sleep,10.06522,0.378284,1.790863,-0.055424,0.023182,-0.015188,77309
2025-02-26 01:34:35.217782,sleep,10.0341,0.361524,1.769315,-0.055158,0.018652,-0.015988,77243
2025-02-26 01:34:35.217782,sleep,10.05325,0.378284,1.757344,-0.054891,0.019718,-0.015988,77183
