Timestamp,Label,AccelX,AccelY,AccelZ,GyroX,GyroY,GyroZ,IR
2025-02-25 15:21:23.200528,sleep,10.08438,0.160412,1.254562,-0.054625,0.022916,-0.014922,125463
2025-02-25 15:21:23.203080,sleep,10.10114,0.134075,1.216254,-0.054625,0.023715,-0.014922,125547
2025-02-25 15:21:23.203080,sleep,10.0772,0.136469,1.158794,-0.054625,0.023449,-0.014922,125518
2025-02-25 15:21:23.203080,sleep,10.08917,0.148441,1.23062,-0.055158,0.02558,-0.015455,125603
2025-02-25 15:21:23.203080,sleep,10.06044,0.136469,1.233014,-0.055158,0.025314,-0.014922,125679
2025-02-25 15:21:23.203080,sleep,10.07241,0.124498,1.240196,-0.053559,0.023982,-0.014922,125765
2025-02-25 15:21:23.203080,sleep,10.07241,0.136469,1.211466,-0.054358,0.024515,-0.014922,125839
2025-02-25 15:21:23.203080,sleep,10.09635,0.136469,1.240196,-0.055158,0.023982,-0.015455,125848
2025-02-25 15:21:23.203080,sleep,10.07959,0.124498,1.221043,-0.054625,0.022916,-0.015188,125928
2025-02-25 15:21:23.203080,sleep,10.0748,0.134075,1.218649,-0.054891,0.025314,-0.015455,126065
2025-02-25 15:21:23.203080,sleep,10.09395,0.138864,1.221043,-0.054092,0.024248,-0.015455,126209
2025-02-25 15:21:23.203080,sleep,10.06762,0.136469,1.23062,-0.054092,0.023715,-0.015455,126288
2025-02-25 15:21:23.203080,sleep,10.06522,0.146046,1.206678,-0.054358,0.024781,-0.015188,126468
2025-02-25 15:21:23.203080,sleep,10.06283,0.134075,1.228225,-0.053825,0.023715,-0.013856,126660
2025-02-25 15:21:23.203080,sleep,10.08198,0.124498,1.21386,-0.055158,0.024248,-0.014123,126209
2025-02-25 15:21:23.203080,sleep,10.0748,0.112527,1.228225,-0.054358,0.025314,-0.01359,127056
2025-02-25 15:21:23.203080,sleep,10.09395,0.122104,1.221043,-0.054625,0.025314,-0.013057,127174
2025-02-25 15:21:23.203080,sleep,10.09874,0.169988,1.252167,-0.054092,0.024781,-0.015721,126767
2025-02-25 15:21:23.203080,sleep,10.09156,0.172383,1.206678,-0.052227,0.023982,-0.017054,125831
2025-02-25 15:21:23.203080,sleep,10.09156,0.124498,1.23062,-0.049562,0.023982,-0.017054,124876
2025-02-25 15:21:23.203080,sleep,10.08438,0.131681,1.228225,-0.05196,0.025047,-0.015455,124302
2025-02-25 15:21:23.203080,sleep,10.06522,0.136469,1.187524,-0.054358,0.025314,-0.014922,124145
2025-02-25 15:21:23.203080,sleep,10.07001,0.153229,1.216254,-0.054891,0.025047,-0.013856,124440
2025-02-25 15:21:23.203080,sleep,10.08438,0.107739,1.216254,-0.055158,0.024781,-0.014655,124964
2025-02-25 15:21:23.203080,sleep,10.08917,0.107739,1.223437,-0.054358,0.024781,-0.014389,125459
2025-02-25 15:21:23.203080,sleep,10.09635,0.107739,1.199495,-0.054891,0.023715,-0.015188,125872
2025-02-25 15:21:23.203080,sleep,10.0748,0.129287,1.235408,-0.054625,0.023182,-0.014922,126191
2025-02-25 15:21:23.203080,sleep,10.07241,0.122104,1.211466,-0.054891,0.023182,-0.015721,126422
2025-02-25 15:21:23.203080,sleep,10.09156,0.129287,1.206678,-0.055158,0.024515,-0.015721,126624
2025-02-25 15:21:23.203080,sleep,10.0772,0.148441,1.233014,-0.053825,0.024248,-0.015721,126675
2025-02-25 15:21:23.203080,sleep,10.10114,0.146046,1.218649,-0.055158,0.023715,-0.014655,126638
2025-02-25 15:21:23.203080,sleep,10.10353,0.131681,1.221043,-0.053292,0.023182,-0.015188,126509
2025-02-25 15:21:23.203080,sleep,10.0772,0.122104,1.237802,-0.051161,0.024515,-0.015188,126261
2025-02-25 15:21:23.203080,sleep,10.0748,0.129287,1.23062,-0.045299,0.024515,-0.014922,125981
2025-02-25 15:21:23.203080,sleep,10.08677,0.134075,1.233014,-0.038904,0.023182,-0.015721,125870
2025-02-25 15:21:23.203080,sleep,10.07959,0.158017,1.192312,-0.039969,0.024515,-0.015455,125689
2025-02-25 15:21:23.203080,sleep,10.0748,0.148441,1.216254,-0.049828,0.024515,-0.015455,125712
2025-02-25 15:21:23.203080,sleep,10.07001,0.160412,1.209072,-0.052493,0.024515,-0.013856,125751
2025-02-25 15:21:23.203080,sleep,10.10593,0.146046,1.21386,-0.054092,0.023982,-0.014922,125950
2025-02-25 15:21:23.203080,sleep,10.08677,0.131681,1.235408,-0.054092,0.024515,-0.015721,125689
2025-02-25 15:21:23.203080,sleep,10.06044,0.124498,1.237802,-0.055424,0.024781,-0.014655,126302
2025-02-25 15:21:23.203080,sleep,10.06762,0.110133,1.228225,-0.055691,0.025047,-0.013856,126446
2025-02-25 15:21:23.203080,sleep,10.11311,0.153229,1.225831,-0.055424,0.02558,-0.013323,126629
2025-02-25 15:21:23.203080,sleep,10.09635,0.143652,1.247379,-0.054891,0.026646,-0.013323,126788
2025-02-25 15:21:23.203080,sleep,10.10593,0.126893,1.242591,-0.055158,0.024248,-0.011991,126905
2025-02-25 15:21:23.203080,sleep,10.06044,0.141258,1.173159,-0.055158,0.023982,-0.01279,126913
2025-02-25 15:21:23.203080,sleep,10.09156,0.110133,1.197101,-0.055424,0.025314,-0.014389,126850
2025-02-25 15:21:23.203080,sleep,10.06762,0.11971,1.23062,-0.054358,0.024781,-0.014389,126798
2025-02-25 15:21:23.203080,sleep,10.08438,0.141258,1.235408,-0.05649,0.025847,-0.01359,126788
2025-02-25 15:21:23.203080,sleep,10.08438,0.141258,1.237802,-0.055957,0.024248,-0.011991,126801
2025-02-25 15:21:23.203080,sleep,10.0748,0.153229,1.223437,-0.056224,0.024515,-0.01359,126838
2025-02-25 15:21:23.203080,sleep,10.05086,0.124498,1.218649,-0.055424,0.025047,-0.01279,126819
2025-02-25 15:21:23.203080,sleep,10.07959,0.11971,1.223437,-0.055957,0.024515,-0.011191,126861
2025-02-25 15:21:23.203080,sleep,10.12747,0.143652,1.247379,-0.054358,0.024248,-0.013856,126924
2025-02-25 15:21:23.203080,sleep,10.07241,0.184354,1.154005,-0.054358,0.024781,-0.014922,126956
2025-02-25 15:21:23.203080,sleep,10.07959,0.155623,1.23062,-0.054891,0.02558,-0.014922,127044
2025-02-25 15:21:23.203080,sleep,10.06762,0.11971,1.242591,-0.055158,0.024248,-0.015455,127132
2025-02-25 15:21:23.203080,sleep,10.03889,0.081403,1.211466,-0.054625,0.023182,-0.013323,127299
2025-02-25 15:21:23.203080,sleep,10.09156,0.114922,1.242591,-0.055424,0.025314,-0.011458,127550
2025-02-25 15:21:23.203080,sleep,10.1155,0.189142,1.244985,-0.054092,0.025314,-0.011724,127800
2025-02-25 15:21:23.203080,sleep,10.07241,0.181959,1.189918,-0.054891,0.022916,-0.014123,127991
2025-02-25 15:21:23.203080,sleep,10.13705,0.079009,1.204283,-0.055158,0.023182,-0.014389,128014
2025-02-25 15:21:23.203080,sleep,10.06283,0.098162,1.218649,-0.054358,0.024515,-0.014655,127511
2025-02-25 15:21:23.203080,sleep,10.04607,0.122104,1.204283,-0.055158,0.026646,-0.014123,126473
2025-02-25 15:21:23.203080,sleep,10.0772,0.181959,1.216254,-0.055158,0.027179,-0.014389,125372
2025-02-25 15:21:23.203080,sleep,10.09156,0.136469,1.264138,-0.055957,0.028778,-0.014123,124655
2025-02-25 15:21:23.203080,sleep,10.08917,0.093374,1.197101,-0.055691,0.024781,-0.012257,124429
2025-02-25 15:21:23.203080,sleep,10.08917,0.110133,1.223437,-0.055957,0.023449,-0.01359,124561
2025-02-25 15:21:23.203080,sleep,10.05804,0.122104,1.256956,-0.054891,0.023982,-0.015721,125006
2025-02-25 15:21:23.203080,sleep,10.07241,0.136469,1.25935,-0.054092,0.024515,-0.017054,125587
2025-02-25 15:21:23.203080,sleep,10.11311,0.114922,1.23062,-0.053559,0.023715,-0.016254,126186
2025-02-25 15:21:23.203080,sleep,10.06522,0.122104,1.216254,-0.054358,0.023715,-0.01359,126652
2025-02-25 15:21:23.203080,sleep,10.07001,0.141258,1.218649,-0.054891,0.023715,-0.01279,127025
2025-02-25 15:21:23.203080,sleep,10.08198,0.129287,1.189918,-0.054625,0.023715,-0.014655,127161
2025-02-25 15:21:23.203080,sleep,10.08198,0.105345,1.228225,-0.054358,0.025314,-0.014922,127206
2025-02-25 15:21:23.203080,sleep,10.14663,0.098162,1.201889,-0.053825,0.02638,-0.014123,127284
2025-02-25 15:21:23.203080,sleep,9.998186,0.169988,1.271321,-0.052493,0.023715,-0.014123,127266
2025-02-25 15:21:23.203080,sleep,10.11311,0.148441,1.175553,-0.053292,0.022383,-0.013856,127158
2025-02-25 15:21:23.203080,sleep,10.05804,0.107739,1.137246,-0.0429,0.022916,-0.014922,126776
2025-02-25 15:21:23.203080,sleep,10.07959,0.158017,1.256956,-0.031709,0.02558,-0.011991,126297
2025-02-25 15:21:23.203080,sleep,10.10593,0.126893,1.237802,-0.053026,0.025314,-0.014123,125913
2025-02-25 15:21:23.203080,sleep,10.04607,0.11971,1.197101,-0.055158,0.025047,-0.014655,125648
2025-02-25 15:21:23.203080,sleep,10.08198,0.062249,1.273715,-0.054092,0.024515,-0.014123,125583
2025-02-25 15:21:23.203080,sleep,10.07241,0.062249,1.242591,-0.053292,0.023449,-0.013323,125586
2025-02-25 15:21:23.203080,sleep,10.08198,0.181959,1.283292,-0.055424,0.02558,-0.011458,125650
2025-02-25 15:21:23.203080,sleep,10.07241,0.229843,1.264138,-0.054625,0.024248,-0.012524,125633
2025-02-25 15:21:23.203080,sleep,10.24958,0.098162,1.084573,-0.056224,0.022116,-0.017054,125501
2025-02-25 15:21:23.203080,sleep,9.883265,0.062249,1.242591,-0.033041,0.025314,-0.013323,125171
2025-02-25 15:21:23.203080,sleep,10.20648,0.122104,1.278504,-0.032508,0.028511,-0.008793,125219
2025-02-25 15:21:23.203080,sleep,9.986216,0.311246,1.237802,-0.050361,0.02638,-0.021051,125087
2025-02-25 15:21:23.203080,sleep,9.995792,0.397437,1.252167,-0.065816,0.02185,-0.014655,125262
2025-02-25 15:21:23.203080,sleep,10.28788,-0.227449,1.161188,-0.05276,0.023182,-0.014389,125612
2025-02-25 15:21:23.203080,sleep,10.00537,-0.016759,1.30484,-0.03464,0.023982,-0.013057,125791
2025-02-25 15:21:23.203080,sleep,10.16339,0.112527,1.252167,-0.054891,0.019985,-0.013323,126295
2025-02-25 15:21:23.203080,sleep,9.959879,0.064643,1.161188,-0.052493,0.023715,-0.020518,126673
2025-02-25 15:21:23.203080,sleep,9.986216,0.11971,1.302446,-0.055158,0.026113,-0.014922,126883
2025-02-25 15:21:23.203080,sleep,10.17057,0.237026,1.292869,-0.055424,0.027179,-0.01279,127224
2025-02-25 15:21:23.203080,sleep,10.16099,0.248997,1.182736,-0.055957,0.021051,-0.011991,127461
2025-02-25 15:21:23.203080,sleep,10.11071,0.122104,1.154005,-0.055957,0.021583,-0.01279,127467
2025-02-25 15:21:23.203080,sleep,10.02213,-0.007183,1.189918,-0.054625,0.026113,-0.017587,127236
2025-02-25 15:21:23.203080,sleep,10.0341,0.086191,1.194707,-0.055424,0.029577,-0.018119,127072
2025-02-25 15:21:23.203080,sleep,10.10593,0.174777,1.268927,-0.055691,0.027979,-0.017054,127158
2025-02-25 15:21:23.203080,sleep,10.1562,0.205901,1.278504,-0.055957,0.024515,-0.01359,127345
2025-02-25 15:21:23.203080,sleep,10.13466,0.146046,1.18513,-0.054358,0.019185,-0.015188,127452
2025-02-25 15:21:23.203080,sleep,10.06283,0.038307,1.182736,-0.053559,0.019185,-0.017853,127385
2025-02-25 15:21:23.203080,sleep,9.933543,0.055067,1.201889,-0.05276,0.025314,-0.018919,127288
2025-02-25 15:21:23.203080,sleep,10.10114,0.184354,1.23062,-0.053825,0.028245,-0.016254,127271
2025-02-25 15:21:23.203080,sleep,10.14663,0.227449,1.218649,-0.055691,0.030377,-0.016254,127055
2025-02-25 15:21:23.203080,sleep,10.00297,0.19393,1.25935,-0.054092,0.024781,-0.013856,126167
2025-02-25 15:21:23.203080,sleep,10.08438,0.064643,1.240196,-0.0437,0.020251,-0.00826,125357
2025-02-25 15:21:23.203080,sleep,10.09635,0.007183,1.244985,0.040236,0.027979,-0.007194,124835
2025-02-25 15:21:23.203080,sleep,10.05086,0.189142,1.192312,-0.000799,0.026913,-0.009326,127055
2025-02-25 15:21:23.203080,sleep,10.13705,0.177171,1.21386,-0.051694,0.025847,-0.013856,125197
2025-02-25 15:21:23.203080,sleep,10.13705,0.11971,1.211466,-0.053559,0.023449,-0.018652,125692
2025-02-25 15:21:23.203080,sleep,10.00297,0.102951,1.21386,-0.053026,0.024781,-0.019185,126002
2025-02-25 15:21:23.203080,sleep,9.964667,0.122104,1.187524,-0.055424,0.024781,-0.015455,126108
2025-02-25 15:21:23.203080,sleep,10.18972,0.155623,1.223437,-0.055158,0.024248,-0.014123,126305
2025-02-25 15:21:23.203080,sleep,10.12268,0.167594,1.256956,-0.055957,0.02558,-0.016521,126563
2025-02-25 15:21:23.203080,sleep,10.02213,0.138864,1.189918,-0.056224,0.026113,-0.01359,126751
2025-02-25 15:21:23.203080,sleep,10.08917,0.055067,1.216254,-0.055158,0.026113,-0.016254,126847
2025-02-25 15:21:23.203080,sleep,9.921572,0.069432,1.252167,-0.054891,0.025047,-0.014123,126634
2025-02-25 15:21:23.203080,sleep,10.27352,0.179565,1.237802,-0.054891,0.020251,-0.009593,126531
2025-02-25 15:21:23.203080,sleep,10.09874,0.21069,1.233014,-0.05276,0.024515,-0.015188,126321
2025-02-25 15:21:23.203080,sleep,10.02213,0.143652,1.149217,-0.054358,0.028245,-0.019185,126157
2025-02-25 15:21:23.203080,sleep,9.89763,0.088585,1.16837,-0.049828,0.023982,-0.022116,125877
2025-02-25 15:21:23.203080,sleep,10.00537,0.196325,1.235408,-0.050361,0.019185,-0.014655,125417
2025-02-25 15:21:23.203080,sleep,10.26394,0.282516,1.122881,-0.044766,0.022116,-0.010925,125274
2025-02-25 15:21:23.203080,sleep,10.13705,0.153229,1.242591,-0.05276,0.027179,-0.016254,125839
2025-02-25 15:21:23.203080,sleep,10.1562,0.02873,1.089362,-0.052227,0.03011,-0.01359,126514
2025-02-25 15:21:23.203080,sleep,9.995792,-0.026336,1.280898,-0.050095,0.037305,-0.022916,127015
2025-02-25 15:21:23.203080,sleep,9.957485,-0.258574,1.45328,-0.045032,0.024781,-0.015988,127455
2025-02-25 15:21:23.203080,sleep,10.10353,0.014365,1.414973,-0.05276,0.027979,-0.00373,127801
2025-02-25 15:21:23.203080,sleep,10.24479,0.201113,1.189918,-0.057822,0.02558,-0.004263,128338
2025-02-25 15:21:23.203080,sleep,10.08677,0.368707,1.249773,-0.056757,0.018652,-0.009859,128979
2025-02-25 15:21:23.203080,sleep,10.00297,-0.031125,1.338359,-0.046897,0.010925,-0.01732,129605
2025-02-25 15:21:23.203080,sleep,9.916783,-0.098162,1.125275,-0.001599,0.019185,-0.011991,130158
2025-02-25 15:21:23.203080,sleep,10.1179,0.260968,1.077391,-0.028245,0.028778,-0.010126,130711
2025-02-25 15:21:23.203080,sleep,10.33577,0.483629,1.374272,-0.054625,0.027179,-0.012257,131202
2025-02-25 15:21:23.203080,sleep,10.10593,0.325611,1.187524,-0.053559,0.015455,-0.024248,131527
2025-02-25 15:21:23.203080,sleep,9.885659,-0.160412,1.060631,-0.038371,0.016521,-0.032242,131645
2025-02-25 15:21:23.203080,sleep,10.01255,-0.198719,1.261744,0.032242,0.030643,-0.024781,131826
2025-02-25 15:21:23.203080,sleep,10.14663,0.28491,1.405396,-0.034907,0.02638,-0.018652,132102
2025-02-25 15:21:23.203080,sleep,10.24958,0.490811,1.132457,-0.059688,0.024248,-0.014123,132552
2025-02-25 15:21:23.203080,sleep,10.02692,0.201113,1.120486,-0.053026,0.019718,-0.014922,132938
2025-02-25 15:21:23.203080,sleep,9.962274,-0.11971,1.345541,-0.053292,0.02185,-0.014655,133284
2025-02-25 15:21:23.203080,sleep,10.12029,-0.052672,1.137246,-0.055424,0.027446,-0.019985,133493
2025-02-25 15:21:23.203080,sleep,10.15141,0.232238,1.177947,-0.055158,0.037038,-0.023449,133491
2025-02-25 15:21:23.203080,sleep,10.21366,0.380678,1.369483,-0.070879,0.033308,-0.024781,133489
2025-02-25 15:21:23.203080,sleep,9.995792,0.263362,1.156399,-0.129767,0.023182,-0.03011,133374
2025-02-25 15:21:23.203080,sleep,9.97185,-0.088585,1.077391,-0.081804,0.016521,-0.021317,133185
2025-02-25 15:21:23.203080,sleep,10.24,0,1.335965,-0.052227,0.022649,-0.018119,132879
2025-02-25 15:21:23.203080,sleep,10.10353,0.229843,1.235408,-0.054092,0.024781,-0.024248,132120
2025-02-25 15:21:23.203080,sleep,9.813833,0.263362,1.144428,-0.055957,0.025314,-0.017587,131052
2025-02-25 15:21:23.203080,sleep,10.10114,-0.04549,1.273715,-0.053292,0.023182,-0.011991,129903
2025-02-25 15:21:23.203080,sleep,10.17775,0.162806,1.326388,-0.048763,0.024515,-0.008793,128590
2025-02-25 15:21:23.203080,sleep,10.0341,0.306458,1.383849,-0.013057,0.019718,-0.018386,127732
2025-02-25 15:21:23.203080,sleep,10.05325,0.134075,1.096544,-0.043433,0.019452,-0.019985,127429
2025-02-25 15:21:23.203080,sleep,9.991004,-0.004788,1.142034,-0.051161,0.028245,-0.016254,127115
2025-02-25 15:21:23.203080,sleep,10.21606,0.095768,1.161188,-0.055691,0.022916,-0.007194,127398
2025-02-25 15:21:23.203080,sleep,10.06762,0.368707,1.235408,-0.057289,0.02558,-0.009859,128038
2025-02-25 15:21:23.203080,sleep,10.09156,0.251391,1.247379,-0.047697,0.022383,-0.013323,128607
2025-02-25 15:21:23.203080,sleep,10.09874,0.033519,1.302446,-0.006395,0.021317,-0.012524,129153
2025-02-25 15:21:23.203080,sleep,10.06044,-0.004788,1.216254,-0.01732,0.024781,-0.010126,129456
2025-02-25 15:21:23.203080,sleep,10.09635,0.122104,1.130063,-0.055424,0.026646,-0.007194,129652
2025-02-25 15:21:23.203080,sleep,10.13466,0.251391,1.247379,-0.063685,0.029311,-0.008793,129796
2025-02-25 15:21:23.203080,sleep,10.10832,0.234632,1.338359,-0.057822,0.01732,-0.009593,129832
2025-02-25 15:21:23.203080,sleep,10.02452,0.052672,1.180341,-0.048496,0.01732,-0.011991,129692
2025-02-25 15:21:23.203080,sleep,10.05086,-0.043096,1.223437,-0.018652,0.02558,-0.014655,129240
2025-02-25 15:21:23.203080,sleep,10.01973,0.083797,1.290475,-0.052227,0.029844,-0.014123,128973
2025-02-25 15:21:23.203080,sleep,10.1586,0.320823,1.247379,-0.084735,0.024781,-0.011191,128878
2025-02-25 15:21:23.203080,sleep,10.16339,0.280122,1.233014,-0.061819,0.017054,-0.010392,128652
2025-02-25 15:21:23.203080,sleep,9.995792,0.069432,1.199495,-0.004796,0.011991,-0.009859,128462
2025-02-25 15:21:23.203080,sleep,10.29507,-0.007183,0.998382,0.079406,0.028245,-0.002132,128569
2025-02-25 15:21:23.203080,sleep,9.861717,0.234632,1.244985,0.06102,0.032775,-0.006662,128714
2025-02-25 15:21:23.203080,sleep,10.16578,0.205901,1.410185,-0.049828,0.031176,-0.005329,128901
2025-02-25 15:21:23.203080,sleep,10.08917,0.09098,1.036689,-0.062885,0.028245,-0.01279,128754
2025-02-25 15:21:23.203080,sleep,10.00537,0.160412,1.393425,-0.066882,0.027979,-0.005596,128547
2025-02-25 15:21:23.203080,sleep,10.12987,0.203507,1.33357,-0.063685,0.018386,-0.009593,128503
2025-02-25 15:21:23.203080,sleep,10.0772,0.629675,1.118092,-0.119908,0.018919,-0.017054,128244
2025-02-25 15:21:23.203080,sleep,10.13944,-0.222661,1.158794,-0.144423,0.022383,-0.01359,128303
2025-02-25 15:21:23.203080,sleep,10.13705,-0.086191,1.278504,-0.099124,0.029044,-0.015188,128497
2025-02-25 15:21:23.203080,sleep,10.12747,0.150835,1.108515,-0.098858,0.022916,-0.01732,128431
2025-02-25 15:21:23.203080,sleep,10.01734,0.098162,1.268927,-0.064484,0.025847,-0.019452,128130
2025-02-25 15:21:23.203080,sleep,10.09874,0.050278,1.328782,-0.03544,0.019185,-0.018386,127900
2025-02-25 15:21:23.203080,sleep,10.08917,-0.007183,1.194707,0.009593,0.018652,-0.015721,127851
2025-02-25 15:21:23.203080,sleep,10.01734,0.191536,1.158794,-0.002132,0.022383,-0.014123,127979
2025-02-25 15:21:23.203080,sleep,10.06762,0.258574,1.192312,-0.049562,0.022116,-0.016787,128446
2025-02-25 15:21:23.203080,sleep,10.12508,0.167594,1.149217,-0.054358,0.023715,-0.018386,128729
2025-02-25 15:21:23.203080,sleep,10.0748,0.081403,1.23062,-0.053559,0.022383,-0.017054,128674
2025-02-25 15:21:23.203080,sleep,10.05565,0.11971,1.182736,-0.053559,0.025047,-0.015721,128447
2025-02-25 15:21:23.203080,sleep,10.04607,0.050278,1.283292,-0.039703,0.024248,-0.019185,128276
2025-02-25 15:21:23.203080,sleep,10.00058,0.062249,1.295263,-0.03464,0.023982,-0.016787,128185
2025-02-25 15:21:23.203080,sleep,10.13944,0.134075,1.261744,-0.038104,0.023715,-0.013856,128079
2025-02-25 15:21:23.203080,sleep,10.15141,0.167594,1.285686,-0.020518,0.022383,-0.014389,127893
2025-02-25 15:21:23.203080,sleep,10.01495,0.076614,1.218649,0.010392,0.022649,-0.014123,127172
2025-02-25 15:21:23.203080,sleep,10.25915,-0.004788,1.036689,0.019985,0.028245,-0.010925,126044
2025-02-25 15:21:23.203080,sleep,9.744401,0.275333,1.292869,0.000799,0.028245,-0.014389,125030
2025-02-25 15:21:23.203080,sleep,10.35492,0.162806,1.142034,-0.067415,0.02558,-0.014389,124544
2025-02-25 15:21:23.203080,sleep,10.08917,0,1.154005,-0.073011,0.029844,-0.020251,124067
2025-02-25 15:21:23.205095,sleep,10.04846,0.079009,1.448492,-0.067415,0.028245,0,124018
2025-02-25 15:21:23.205095,sleep,10.10114,0.205901,1.034295,-0.107384,0.014655,-0.007194,125115
2025-02-25 15:21:23.205095,sleep,10.03649,0.088585,1.108515,-0.078074,0.024248,-0.010925,125723
2025-02-25 15:21:23.205095,sleep,10.04368,0.169988,1.414973,-0.053292,0.027712,-0.015988,126473
2025-02-25 15:21:23.205095,sleep,10.14902,0.169988,1.163582,-0.063685,0.022116,-0.012257,127033
2025-02-25 15:21:23.205095,sleep,10.16099,0.181959,1.132457,-0.061553,0.026113,-0.016254,127348
2025-02-25 15:21:23.205095,sleep,10.04846,0.126893,1.422156,-0.062352,0.027979,-0.018386,127418
2025-02-25 15:21:23.205095,sleep,9.967062,0.043096,1.211466,-0.105253,0.018652,-0.019985,127306
2025-02-25 15:21:23.205095,sleep,10.21366,-0.009577,1.058237,-0.066882,0.020251,-0.016254,127192
2025-02-25 15:21:23.205095,sleep,10.19691,0.179565,1.474828,-0.030377,0.027712,-0.015455,127394
2025-02-25 15:21:23.205095,sleep,10.13705,0.040701,1.323994,0.048496,0.023182,-0.008793,127891
2025-02-25 15:21:23.205095,sleep,10.0772,0.031125,1.18513,0.076741,0.023982,-0.008793,128229
2025-02-25 15:21:23.205095,sleep,10.01016,0.189142,1.175553,0.020518,0.022916,-0.018119,128282
2025-02-25 15:21:23.205095,sleep,9.92636,0.098162,1.108515,-0.010925,0.026113,-0.022116,128218
2025-02-25 15:21:23.205095,sleep,10.14902,0.191536,1.115698,-0.02638,0.027712,-0.011458,128480
2025-02-25 15:21:23.205095,sleep,10.24718,0.385466,1.278504,-0.057023,0.027446,-0.00826,128763
2025-02-25 15:21:23.205095,sleep,10.06522,0.227449,1.189918,-0.110049,0.018119,-0.009326,128748
2025-02-25 15:21:23.205095,sleep,9.959879,-0.016759,1.101333,-0.145489,0.018919,-0.01359,128716
2025-02-25 15:21:23.205095,sleep,9.979033,-0.071826,1.323994,-0.124172,0.026113,-0.019985,128653
2025-02-25 15:21:23.205095,sleep,10.08438,0.076614,1.273715,-0.106585,0.026113,-0.018119,128739
2025-02-25 15:21:23.205095,sleep,10.26873,0.251391,1.235408,-0.074343,0.024515,-0.011458,129148
2025-02-25 15:21:23.205095,sleep,10.1562,0.25618,1.374272,-0.057822,0.021051,-0.010925,129627
2025-02-25 15:21:23.205095,sleep,10.00058,0.100556,1.244985,-0.057556,0.014922,-0.013057,129940
2025-02-25 15:21:23.205095,sleep,9.935937,-0.069432,1.091756,-0.052227,0.019452,-0.018652,130041
2025-02-25 15:21:23.205095,sleep,10.10593,0.016759,1.163582,-0.045299,0.022649,-0.019718,129948
2025-02-25 15:21:23.205095,sleep,10.17057,0.198719,1.163582,-0.050894,0.029044,-0.015988,130016
2025-02-25 15:21:23.205095,sleep,10.12029,0.339977,1.256956,-0.081271,0.027979,-0.014655,130203
2025-02-25 15:21:23.205095,sleep,10.17296,0.162806,1.302446,-0.118842,0.019718,-0.018386,130246
2025-02-25 15:21:23.205095,sleep,10.69969,0.067038,1.197101,-0.072478,0.00906,-0.055158,130149
2025-02-25 15:21:23.205095,sleep,9.196129,-0.026336,1.247379,-0.075942,0.023982,-0.037038,129334
2025-02-25 15:21:23.205095,sleep,10.16817,0.026336,1.01993,-0.150818,0.017853,0.002665,129194
2025-02-25 15:21:23.205095,sleep,10.25676,0.385466,1.216254,-0.061286,0.03091,-0.016254,130246
2025-02-25 15:21:23.205095,sleep,10.12747,0.294487,1.434127,-0.058089,0.024781,-0.019452,129141
2025-02-25 15:21:23.205095,sleep,10.0772,-0.129287,1.154005,-0.05196,0.017054,-0.016254,128843
2025-02-25 15:21:23.205095,sleep,10.00776,0.007183,1.177947,-0.028511,0.021317,-0.014389,128023
2025-02-25 15:21:23.205095,sleep,9.998186,0.19393,1.323994,0.022383,0.027712,-0.015188,127396
2025-02-25 15:21:23.205095,sleep,10.1179,0.220267,1.142034,-0.014123,0.020784,-0.017054,127179
2025-02-25 15:21:23.205095,sleep,10.12747,0.093374,1.163582,-0.034907,0.023715,-0.010126,126688
2025-02-25 15:21:23.205095,sleep,10.13226,0.19393,1.278504,-0.047697,0.027446,-0.001332,125528
2025-02-25 15:21:23.205095,sleep,10.21366,0.253785,1.022324,-0.055691,0.019985,-0.019985,124398
2025-02-25 15:21:23.205095,sleep,10.00297,-0.004788,1.16837,-0.043966,0.025314,-0.026913,122998
2025-02-25 15:21:23.205095,sleep,10.10593,0.031125,1.398214,-0.050628,0.032775,-0.013323,122226
2025-02-25 15:21:23.205095,sleep,10.12987,0.110133,1.134852,-0.062352,0.025047,-0.010658,122167
2025-02-25 15:21:23.205095,sleep,10.10353,0.289698,1.240196,-0.066616,0.022383,-0.011991,122694
2025-02-25 15:21:23.205095,sleep,10.02931,0.098162,1.261744,-0.054625,0.018652,-0.019452,123232
2025-02-25 15:21:23.205095,sleep,10.12029,-0.021548,1.163582,-0.052227,0.021051,-0.017054,123632
2025-02-25 15:21:23.205095,sleep,10.02692,0.062249,1.18513,-0.048496,0.022649,-0.017054,123865
2025-02-25 15:21:23.205095,sleep,10.19691,0.227449,1.252167,-0.051694,0.027179,-0.011991,124255
2025-02-25 15:21:23.205095,sleep,10.09635,0.222661,1.223437,-0.053292,0.020518,-0.015988,124668
2025-02-25 15:21:23.205095,sleep,10.05804,0.079009,1.218649,-0.040236,0.021051,-0.014655,124889
2025-02-25 15:21:23.205095,sleep,10.05325,0.031125,1.218649,-0.027979,0.023449,-0.015988,124813
2025-02-25 15:21:23.205095,sleep,10.05325,0.124498,1.204283,-0.028778,0.025847,-0.015188,124659
2025-02-25 15:21:23.205095,sleep,10.02931,0.146046,1.359907,-0.020518,0.023449,-0.012524,124606
2025-02-25 15:21:23.205095,sleep,10.20648,0.155623,1.163582,-0.023715,0.025314,-0.00906,124685
2025-02-25 15:21:23.205095,sleep,10.06522,0.189142,1.084573,-0.055691,0.020518,-0.016521,124522
2025-02-25 15:21:23.205095,sleep,10.05565,0.205901,1.134852,-0.073277,0.022649,-0.017054,124431
2025-02-25 15:21:23.205095,sleep,10.06044,0.079009,1.216254,-0.054092,0.025847,-0.018919,124315
2025-02-25 15:21:23.205095,sleep,10.09874,0.114922,1.173159,-0.054891,0.026113,-0.016521,124297
2025-02-25 15:21:23.205095,sleep,10.13226,0.162806,1.280898,-0.058888,0.03011,-0.011458,124485
2025-02-25 15:21:23.205095,sleep,10.10832,0.181959,1.211466,-0.075142,0.023182,-0.011724,124880
2025-02-25 15:21:23.205095,sleep,10.07001,0.100556,1.13964,-0.061819,0.019452,-0.015988,125040
2025-02-25 15:21:23.205095,sleep,10.05804,0.083797,1.23062,-0.053559,0.023715,-0.019452,125162
2025-02-25 15:21:23.205095,sleep,10.06522,0.11971,1.288081,-0.055691,0.026913,-0.016254,125344
2025-02-25 15:21:23.205095,sleep,10.13705,0.146046,1.209072,-0.055957,0.026913,-0.012524,125547
2025-02-25 15:21:23.205095,sleep,10.09874,0.153229,1.23062,-0.054092,0.024515,-0.014389,125470
2025-02-25 15:21:23.205095,sleep,10.07241,0.114922,1.228225,-0.055158,0.02185,-0.015455,125325
2025-02-25 15:21:23.205095,sleep,10.07959,0.107739,1.079785,-0.055691,0.022383,-0.016254,125267
2025-02-25 15:21:23.205095,sleep,10.0748,0.129287,1.189918,-0.053825,0.023182,-0.018119,125371
2025-02-25 15:21:23.205095,sleep,10.07001,0.153229,1.273715,-0.050095,0.024781,-0.016787,125518
2025-02-25 15:21:23.205095,sleep,10.12268,0.162806,1.23062,-0.053559,0.02558,-0.014123,125448
2025-02-25 15:21:23.205095,sleep,10.10114,0.114922,1.204283,-0.055158,0.024781,-0.014922,125234
2025-02-25 15:21:23.205095,sleep,10.05325,0.098162,1.244985,-0.057289,0.026913,-0.015188,125059
2025-02-25 15:21:23.205095,sleep,10.0772,0.098162,1.199495,-0.062086,0.023715,-0.015188,124958
2025-02-25 15:21:23.205095,sleep,10.12747,0.134075,1.221043,-0.055424,0.023449,-0.016521,124890
2025-02-25 15:21:23.205095,sleep,10.07959,0.158017,1.285686,-0.054358,0.021317,-0.016254,124881
2025-02-25 15:21:23.205095,sleep,10.11071,0.1652,1.194707,-0.05649,0.024248,-0.01359,124820
2025-02-25 15:21:23.205095,sleep,10.07241,0.131681,1.156399,-0.065816,0.024781,-0.015988,124958
2025-02-25 15:21:23.205095,sleep,10.06522,0.143652,1.187524,-0.079139,0.025314,-0.015721,124624
2025-02-25 15:21:23.205095,sleep,10.11311,0.134075,1.206678,-0.085534,0.025847,-0.015721,124521
2025-02-25 15:21:23.205095,sleep,10.07001,0.122104,1.240196,-0.077274,0.026646,-0.016787,123828
2025-02-25 15:21:23.205095,sleep,10.08677,0.114922,1.235408,-0.060221,0.024248,-0.015721,122570
2025-02-25 15:21:23.205095,sleep,10.06283,0.143652,1.237802,-0.061286,0.02558,-0.015188,121460
2025-02-25 15:21:23.205095,sleep,10.04368,0.095768,1.165976,-0.060753,0.023182,-0.015455,120964
2025-02-25 15:21:23.205095,sleep,10.08677,0.126893,1.170765,-0.055424,0.02185,-0.015721,120875
2025-02-25 15:21:23.205095,sleep,10.09156,0.169988,1.264138,-0.054625,0.023449,-0.01732,121053
2025-02-25 15:21:23.205095,sleep,10.09635,0.153229,1.254562,-0.054625,0.023182,-0.018119,121134
2025-02-25 15:21:23.205095,sleep,10.08917,0.110133,1.247379,-0.054625,0.023715,-0.016521,121246
2025-02-25 15:21:23.205095,sleep,10.06283,0.076614,1.228225,-0.053825,0.019185,-0.017054,121502
2025-02-25 15:21:23.205095,sleep,10.09635,0.114922,1.18513,-0.055158,0.021317,-0.013856,122023
2025-02-25 15:21:23.205095,sleep,10.09156,0.181959,1.180341,-0.055158,0.020784,-0.017587,122491
2025-02-25 15:21:23.205095,sleep,10.06044,0.186748,1.233014,-0.055158,0.017054,-0.021583,122696
2025-02-25 15:21:23.205095,sleep,10.08917,0.105345,1.197101,-0.055158,0.020251,-0.018919,122741
2025-02-25 15:21:23.205095,sleep,10.07959,0.095768,1.16837,-0.058089,0.028245,-0.01359,122476
2025-02-25 15:21:23.205095,sleep,10.04607,0.172383,1.204283,-0.063152,0.03011,-0.013323,122205
2025-02-25 15:21:23.205095,sleep,10.03649,0.153229,1.194707,-0.055691,0.032242,-0.011191,122345
2025-02-25 15:21:23.205095,sleep,10.10353,0.114922,1.187524,-0.052493,0.031176,-0.007461,123014
2025-02-25 15:21:23.205095,sleep,10.12987,0.126893,1.254562,-0.050628,0.027712,-0.010925,123868
2025-02-25 15:21:23.205095,sleep,10.08438,0.160412,1.228225,-0.057023,0.02638,-0.014922,124250
2025-02-25 15:21:23.205095,sleep,10.07241,0.129287,1.194707,-0.06555,0.024515,-0.015988,124389
2025-02-25 15:21:23.205095,sleep,10.06522,0.102951,1.209072,-0.060753,0.022649,-0.015721,124405
2025-02-25 15:21:23.205095,sleep,10.09395,0.11971,1.201889,-0.055691,0.024248,-0.013856,124525
