Timestamp,Label,AccelX,AccelY,AccelZ,GyroX,GyroY,GyroZ,IR
2025-02-26 01:05:47.356003,sleep,10.04846,0.354342,1.805228,-0.054625,0.021317,-0.015188,80527
2025-02-26 01:05:47.356003,sleep,10.05325,0.356736,1.810017,-0.054891,0.022116,-0.014922,80233
2025-02-26 01:05:47.356003,sleep,10.06044,0.380678,1.793257,-0.054891,0.023182,-0.015188,80189
2025-02-26 01:05:47.356003,sleep,10.02692,0.332794,1.812411,-0.054625,0.023982,-0.014389,80126
2025-02-26 01:05:47.356003,sleep,10.04607,0.344765,1.805228,-0.054891,0.02185,-0.014389,80163
2025-02-26 01:05:47.356003,sleep,10.05086,0.366313,1.810017,-0.055158,0.022649,-0.01359,80170
2025-02-26 01:05:47.356003,sleep,10.04368,0.361524,1.807622,-0.055158,0.023982,-0.015188,80189
2025-02-26 01:05:47.356003,sleep,10.04128,0.349553,1.798046,-0.054358,0.022649,-0.014922,80078
2025-02-26 01:05:47.356003,sleep,10.07959,0.349553,1.802834,-0.054358,0.021583,-0.015188,79968
2025-02-26 01:05:47.356003,sleep,10.04128,0.339977,1.788469,-0.054358,0.021051,-0.015455,79832
2025-02-26 01:05:47.356003,sleep,10.04128,0.35913,1.810017,-0.054358,0.021051,-0.014389,79669
2025-02-26 01:05:47.356003,sleep,10.04607,0.347159,1.793257,-0.054625,0.022916,-0.015455,79628
2025-02-26 01:05:47.356003,sleep,10.04607,0.371101,1.807622,-0.054625,0.019452,-0.015721,79369
2025-02-26 01:05:47.356003,sleep,10.03649,0.35913,1.805228,-0.054625,0.018652,-0.015721,79141
2025-02-26 01:05:47.356003,sleep,10.03889,0.354342,1.798046,-0.052493,0.02185,-0.015721,78736
2025-02-26 01:05:47.356003,sleep,10.05565,0.354342,1.795651,-0.049029,0.022649,-0.014389,78354
2025-02-26 01:05:47.356003,sleep,10.05804,0.351948,1.778892,-0.050095,0.017587,-0.015988,78116
2025-02-26 01:05:47.356003,sleep,10.06283,0.351948,1.795651,-0.05276,0.021583,-0.015721,77998
2025-02-26 01:05:47.356003,sleep,10.04846,0.361524,1.786075,-0.054092,0.022116,-0.015188,77835
2025-02-26 01:05:47.356003,sleep,10.05086,0.354342,1.824382,-0.054625,0.019452,-0.016787,77521
2025-02-26 01:05:47.356003,sleep,10.05565,0.35913,1.802834,-0.054092,0.019452,-0.016254,77221
2025-02-26 01:05:47.356003,sleep,10.04128,0.363919,1.805228,-0.054358,0.020251,-0.014655,76961
2025-02-26 01:05:47.356003,sleep,10.06762,0.380678,1.781286,-0.054092,0.022116,-0.015188,76739
2025-02-26 01:05:47.356003,sleep,10.04128,0.373495,1.807622,-0.053292,0.021051,-0.015721,76526
2025-02-26 01:05:47.356003,sleep,10.02692,0.363919,1.78368,-0.053026,0.025047,-0.014389,76399
2025-02-26 01:05:47.356003,sleep,10.04846,0.349553,1.793257,-0.053026,0.022383,-0.013856,76273
2025-02-26 01:05:47.356003,sleep,10.06522,0.35913,1.776498,-0.054625,0.023182,-0.014655,76118
2025-02-26 01:05:47.356003,sleep,10.0341,0.371101,1.793257,-0.054092,0.024781,-0.014389,76154
2025-02-26 01:05:47.356003,sleep,10.05325,0.363919,1.795651,-0.054891,0.026113,-0.01359,76202
2025-02-26 01:05:47.356003,sleep,10.04846,0.361524,1.793257,-0.055158,0.02638,-0.014389,76321
2025-02-26 01:05:47.356003,sleep,10.03649,0.366313,1.786075,-0.053825,0.025314,-0.013856,76118
2025-02-26 01:05:47.356003,sleep,10.04607,0.356736,1.795651,-0.055158,0.029844,-0.013323,76732
2025-02-26 01:05:47.356003,sleep,10.0748,0.35913,1.819593,-0.055691,0.027979,-0.013057,77004
2025-02-26 01:05:47.356003,sleep,10.04607,0.363919,1.807622,-0.054358,0.02638,-0.014123,77345
2025-02-26 01:05:47.356003,sleep,10.04607,0.361524,1.812411,-0.055158,0.026913,-0.01359,77662
2025-02-26 01:05:47.356003,sleep,10.04128,0.351948,1.795651,-0.055424,0.025847,-0.01359,78009
2025-02-26 01:05:47.356003,sleep,10.04607,0.361524,1.817199,-0.054625,0.028778,-0.013323,78286
2025-02-26 01:05:47.356003,sleep,10.07001,0.368707,1.798046,-0.055158,0.029844,-0.013323,78478
2025-02-26 01:05:47.356003,sleep,10.04846,0.373495,1.807622,-0.055424,0.027712,-0.012257,78624
2025-02-26 01:05:47.356003,sleep,10.04846,0.368707,1.798046,-0.054358,0.026646,-0.01359,78735
2025-02-26 01:05:47.356003,sleep,10.05565,0.354342,1.819593,-0.054358,0.027446,-0.013057,78864
2025-02-26 01:05:47.356003,sleep,10.04368,0.363919,1.810017,-0.055158,0.024781,-0.014123,79021
2025-02-26 01:05:47.356003,sleep,10.05565,0.361524,1.802834,-0.055424,0.025047,-0.01359,79160
2025-02-26 01:05:47.356003,sleep,10.03649,0.339977,1.819593,-0.054891,0.025047,-0.014123,79168
2025-02-26 01:05:47.356003,sleep,10.0317,0.371101,1.80044,-0.055691,0.027446,-0.014389,79257
2025-02-26 01:05:47.356003,sleep,10.05086,0.351948,1.766921,-0.055691,0.02638,-0.013856,79318
2025-02-26 01:05:47.356003,sleep,10.06762,0.35913,1.814805,-0.055691,0.02558,-0.013323,79321
2025-02-26 01:05:47.356003,sleep,10.04128,0.35913,1.817199,-0.055424,0.024781,-0.01359,79306
2025-02-26 01:05:47.356003,sleep,10.03889,0.366313,1.790863,-0.054092,0.025047,-0.013856,79348
2025-02-26 01:05:47.356003,sleep,10.03649,0.37589,1.786075,-0.054625,0.025314,-0.014655,79457
2025-02-26 01:05:47.356003,sleep,10.05086,0.356736,1.798046,-0.055424,0.02638,-0.014389,79477
2025-02-26 01:05:47.356003,sleep,10.02931,0.351948,1.807622,-0.055158,0.02638,-0.013856,79563
2025-02-26 01:05:47.356003,sleep,10.04368,0.347159,1.781286,-0.054891,0.023715,-0.013856,79616
2025-02-26 01:05:47.356003,sleep,10.04368,0.351948,1.793257,-0.055424,0.023715,-0.014655,79702
2025-02-26 01:05:47.356003,sleep,10.05086,0.354342,1.807622,-0.054891,0.025847,-0.014389,79735
2025-02-26 01:05:47.356003,sleep,10.05086,0.354342,1.814805,-0.054891,0.023715,-0.014123,79792
2025-02-26 01:05:47.356003,sleep,10.05804,0.354342,1.812411,-0.053825,0.026113,-0.014655,79890
2025-02-26 01:05:47.356003,sleep,10.03889,0.363919,1.810017,-0.054625,0.025047,-0.014389,80015
2025-02-26 01:05:47.356003,sleep,10.05086,0.344765,1.810017,-0.054625,0.025314,-0.014389,80131
2025-02-26 01:05:47.356003,sleep,10.05086,0.361524,1.807622,-0.055424,0.024515,-0.013856,80204
2025-02-26 01:05:47.356003,sleep,10.07241,0.35913,1.807622,-0.055957,0.026113,-0.014389,80221
2025-02-26 01:05:47.356003,sleep,10.05565,0.344765,1.819593,-0.055158,0.025314,-0.01359,80295
2025-02-26 01:05:47.356003,sleep,10.0772,0.351948,1.814805,-0.054092,0.026113,-0.014655,80301
2025-02-26 01:05:47.356003,sleep,10.05804,0.363919,1.831564,-0.054891,0.025047,-0.015188,80368
2025-02-26 01:05:47.356003,sleep,10.04846,0.354342,1.807622,-0.055158,0.026646,-0.014922,80469
2025-02-26 01:05:47.356003,sleep,10.04846,0.347159,1.790863,-0.054891,0.025314,-0.014123,80601
2025-02-26 01:05:47.356003,sleep,10.04607,0.356736,1.855506,-0.055424,0.02638,-0.01359,80711
2025-02-26 01:05:47.356003,sleep,10.05086,0.354342,1.814805,-0.055691,0.02638,-0.01359,80740
2025-02-26 01:05:47.356003,sleep,10.04128,0.342371,1.817199,-0.055691,0.024781,-0.013323,80802
2025-02-26 01:05:47.356003,sleep,10.06283,0.347159,1.838747,-0.054891,0.025314,-0.013856,80917
2025-02-26 01:05:47.356003,sleep,10.04128,0.356736,1.814805,-0.055424,0.02558,-0.015455,81030
2025-02-26 01:05:47.356003,sleep,10.05804,0.35913,1.817199,-0.055424,0.026646,-0.013856,81297
2025-02-26 01:05:47.356003,sleep,10.02213,0.342371,1.82917,-0.054092,0.023449,-0.015188,81335
2025-02-26 01:05:47.356003,sleep,10.04368,0.366313,1.821988,-0.055957,0.028245,-0.01359,81418
2025-02-26 01:05:47.356003,sleep,10.04607,0.37589,1.82917,-0.055957,0.026113,-0.012257,81516
2025-02-26 01:05:47.356003,sleep,10.04368,0.354342,1.821988,-0.054625,0.020518,-0.015721,81541
2025-02-26 01:05:47.356003,sleep,10.05565,0.356736,1.819593,-0.055158,0.02638,-0.014123,81550
2025-02-26 01:05:47.356003,sleep,10.04368,0.363919,1.824382,-0.055691,0.026646,-0.014123,81619
2025-02-26 01:05:47.356003,sleep,10.04128,0.35913,1.82917,-0.05649,0.023982,-0.014655,81516
2025-02-26 01:05:47.356003,sleep,10.04846,0.339977,1.810017,-0.055957,0.023982,-0.015455,81530
2025-02-26 01:05:47.356003,sleep,10.0341,0.361524,1.824382,-0.055957,0.023182,-0.014922,81520
2025-02-26 01:05:47.356003,sleep,10.03889,0.349553,1.817199,-0.055957,0.02185,-0.015188,81556
2025-02-26 01:05:47.356003,sleep,10.06283,0.373495,1.838747,-0.055691,0.023715,-0.014922,81628
2025-02-26 01:05:47.356003,sleep,10.04368,0.332794,1.819593,-0.055424,0.025047,-0.013856,81723
2025-02-26 01:05:47.356003,sleep,10.05086,0.337582,1.817199,-0.055691,0.025047,-0.014389,81786
2025-02-26 01:05:47.356003,sleep,10.07001,0.351948,1.812411,-0.056224,0.024781,-0.015188,81753
2025-02-26 01:05:47.356003,sleep,10.05565,0.354342,1.84593,-0.055957,0.025314,-0.014389,81725
2025-02-26 01:05:47.356003,sleep,10.05325,0.373495,1.833959,-0.056224,0.02558,-0.014389,81708
2025-02-26 01:05:47.356003,sleep,10.04846,0.347159,1.812411,-0.055957,0.024248,-0.013856,81736
2025-02-26 01:05:47.356003,sleep,10.05565,0.356736,1.821988,-0.056224,0.023182,-0.014389,81724
2025-02-26 01:05:47.356003,sleep,10.04368,0.347159,1.824382,-0.055957,0.026913,-0.014655,81823
2025-02-26 01:05:47.356003,sleep,10.0748,0.373495,1.838747,-0.05649,0.024781,-0.014389,81913
2025-02-26 01:05:47.356003,sleep,10.04846,0.347159,1.843535,-0.056224,0.023715,-0.015188,81878
2025-02-26 01:05:47.356003,sleep,10.05325,0.339977,1.795651,-0.055691,0.021583,-0.015721,81842
2025-02-26 01:05:47.356003,sleep,10.06044,0.342371,1.807622,-0.055158,0.023715,-0.015188,81837
2025-02-26 01:05:47.356003,sleep,10.06283,0.351948,1.814805,-0.054891,0.024248,-0.014922,81826
2025-02-26 01:05:47.356003,sleep,10.08198,0.351948,1.802834,-0.055424,0.024515,-0.014655,81779
2025-02-26 01:05:47.356003,sleep,10.03889,0.356736,1.831564,-0.055158,0.025847,-0.014922,81811
2025-02-26 01:05:47.356003,sleep,10.05086,0.351948,1.843535,-0.054891,0.023182,-0.014123,81849
2025-02-26 01:05:47.356003,sleep,10.06044,0.339977,1.817199,-0.054358,0.023182,-0.015188,81791
2025-02-26 01:05:47.356003,sleep,10.02931,0.347159,1.824382,-0.054625,0.023449,-0.014655,81839
2025-02-26 01:05:47.356003,sleep,10.04128,0.344765,1.814805,-0.055424,0.024248,-0.014123,81884
2025-02-26 01:05:47.356003,sleep,10.02213,0.35913,1.807622,-0.054625,0.023182,-0.014655,81855
2025-02-26 01:05:47.356003,sleep,10.06044,0.342371,1.814805,-0.055957,0.022383,-0.015188,81923
2025-02-26 01:05:47.356003,sleep,10.04846,0.337582,1.80044,-0.055424,0.022383,-0.014655,81893
2025-02-26 01:05:47.356003,sleep,10.06044,0.363919,1.817199,-0.055158,0.022649,-0.014655,81970
2025-02-26 01:05:47.356003,sleep,10.05565,0.363919,1.841141,-0.054891,0.023715,-0.014389,82000
2025-02-26 01:05:47.356003,sleep,10.04368,0.35913,1.802834,-0.055691,0.022649,-0.014655,81989
2025-02-26 01:05:47.356003,sleep,10.06044,0.35913,1.836353,-0.055158,0.023449,-0.014922,81939
2025-02-26 01:05:47.356003,sleep,10.05804,0.361524,1.82917,-0.054891,0.022649,-0.014922,81902
2025-02-26 01:05:47.356003,sleep,10.0317,0.363919,1.788469,-0.053825,0.024248,-0.014389,81865
2025-02-26 01:05:47.356003,sleep,10.04368,0.335188,1.812411,-0.055158,0.023182,-0.014389,81849
2025-02-26 01:05:47.356003,sleep,10.05086,0.354342,1.824382,-0.055424,0.022649,-0.014655,81846
2025-02-26 01:05:47.356003,sleep,10.05325,0.349553,1.80044,-0.054625,0.022116,-0.015188,81853
2025-02-26 01:05:47.356003,sleep,10.04368,0.371101,1.812411,-0.055957,0.024515,-0.014655,81896
2025-02-26 01:05:47.356003,sleep,10.02931,0.35913,1.802834,-0.054891,0.023182,-0.014655,81839
2025-02-26 01:05:47.356003,sleep,10.06762,0.354342,1.810017,-0.054625,0.023182,-0.014922,81817
2025-02-26 01:05:47.356003,sleep,10.04368,0.349553,1.812411,-0.054358,0.021583,-0.014922,81778
2025-02-26 01:05:47.356003,sleep,10.05565,0.344765,1.80044,-0.055158,0.022916,-0.015188,81792
2025-02-26 01:05:47.356003,sleep,10.04846,0.351948,1.812411,-0.054891,0.022116,-0.014123,81727
2025-02-26 01:05:47.356003,sleep,10.04128,0.368707,1.824382,-0.054891,0.024248,-0.014922,81713
2025-02-26 01:05:47.356003,sleep,10.04128,0.351948,1.814805,-0.055691,0.023182,-0.014922,81721
2025-02-26 01:05:47.356003,sleep,10.05325,0.354342,1.812411,-0.054092,0.024248,-0.014655,81725
2025-02-26 01:05:47.356003,sleep,10.0341,0.337582,1.810017,-0.055158,0.022916,-0.014922,81741
2025-02-26 01:05:47.356003,sleep,10.05565,0.363919,1.80044,-0.055158,0.022116,-0.014655,81749
2025-02-26 01:05:47.356003,sleep,10.04607,0.35913,1.788469,-0.054891,0.024781,-0.014389,81776
2025-02-26 01:05:47.356003,sleep,10.04607,0.368707,1.810017,-0.055691,0.025847,-0.014655,81753
2025-02-26 01:05:47.356003,sleep,10.04368,0.363919,1.817199,-0.054625,0.019718,-0.015188,81721
2025-02-26 01:05:47.356003,sleep,10.04607,0.351948,1.810017,-0.054358,0.022116,-0.015188,81751
2025-02-26 01:05:47.356003,sleep,10.01973,0.351948,1.817199,-0.054625,0.026113,-0.014123,81792
2025-02-26 01:05:47.356003,sleep,10.04368,0.347159,1.838747,-0.055424,0.022383,-0.014389,81740
2025-02-26 01:05:47.356003,sleep,10.03889,0.366313,1.802834,-0.055424,0.023449,-0.013856,81656
2025-02-26 01:05:47.356003,sleep,10.04607,0.342371,1.812411,-0.054625,0.022916,-0.014655,81581
2025-02-26 01:05:47.356003,sleep,10.04368,0.356736,1.826776,-0.055158,0.023982,-0.014655,81522
2025-02-26 01:05:47.356003,sleep,10.03649,0.368707,1.826776,-0.056224,0.023182,-0.014389,81491
2025-02-26 01:05:47.356003,sleep,10.04368,0.354342,1.805228,-0.055691,0.024248,-0.014123,81514
2025-02-26 01:05:47.356003,sleep,10.05565,0.351948,1.810017,-0.054891,0.022649,-0.014922,81507
2025-02-26 01:05:47.356003,sleep,10.04128,0.356736,1.807622,-0.055158,0.023715,-0.014655,81549
2025-02-26 01:05:47.356003,sleep,10.0317,0.356736,1.807622,-0.054625,0.022916,-0.015188,81591
2025-02-26 01:05:47.356003,sleep,10.05086,0.349553,1.798046,-0.054625,0.025314,-0.014123,81529
2025-02-26 01:05:47.356003,sleep,10.04368,0.335188,1.814805,-0.055424,0.023449,-0.014389,81514
2025-02-26 01:05:47.356003,sleep,10.04607,0.337582,1.812411,-0.054891,0.022116,-0.014922,81510
2025-02-26 01:05:47.356003,sleep,10.0341,0.383072,1.821988,-0.054891,0.02558,-0.014123,81553
2025-02-26 01:05:47.356003,sleep,10.05086,0.37589,1.826776,-0.055424,0.023715,-0.014655,81582
2025-02-26 01:05:47.356003,sleep,10.05325,0.349553,1.826776,-0.055691,0.02185,-0.014655,81541
2025-02-26 01:05:47.356003,sleep,10.0341,0.344765,1.80044,-0.054891,0.021583,-0.014123,81527
2025-02-26 01:05:47.356003,sleep,10.04607,0.35913,1.838747,-0.055957,0.023715,-0.014922,81465
2025-02-26 01:05:47.356003,sleep,10.06522,0.35913,1.817199,-0.055158,0.023982,-0.014922,81535
2025-02-26 01:05:47.356003,sleep,10.0748,0.344765,1.826776,-0.054358,0.023449,-0.015455,81595
2025-02-26 01:05:47.356003,sleep,10.07001,0.361524,1.793257,-0.055424,0.024248,-0.014922,81582
2025-02-26 01:05:47.356003,sleep,10.04607,0.349553,1.817199,-0.054358,0.022916,-0.015188,81568
2025-02-26 01:05:47.356003,sleep,10.04607,0.354342,1.824382,-0.054625,0.022116,-0.014922,81543
2025-02-26 01:05:47.356003,sleep,10.05325,0.380678,1.812411,-0.054092,0.023182,-0.014389,81592
2025-02-26 01:05:47.356003,sleep,10.03889,0.368707,1.84593,-0.054092,0.023982,-0.014655,81585
2025-02-26 01:05:47.356003,sleep,10.03889,0.366313,1.790863,-0.054358,0.023982,-0.014389,81641
2025-02-26 01:05:47.356003,sleep,10.06522,0.349553,1.819593,-0.054625,0.024248,-0.014123,81648
2025-02-26 01:05:47.356003,sleep,10.05565,0.354342,1.836353,-0.054358,0.024515,-0.014123,81600
2025-02-26 01:05:47.356003,sleep,10.06044,0.347159,1.841141,-0.054891,0.023182,-0.014922,81558
2025-02-26 01:05:47.356003,sleep,10.06044,0.351948,1.821988,-0.055158,0.023449,-0.015188,81578
2025-02-26 01:05:47.356003,sleep,10.05325,0.349553,1.826776,-0.055691,0.024248,-0.014922,81492
2025-02-26 01:05:47.356003,sleep,10.06044,0.356736,1.817199,-0.054625,0.023182,-0.014922,81517
2025-02-26 01:05:47.356003,sleep,10.06044,0.354342,1.812411,-0.054625,0.022916,-0.014655,81550
2025-02-26 01:05:47.356003,sleep,10.0341,0.344765,1.807622,-0.055158,0.023982,-0.014123,81563
2025-02-26 01:05:47.356003,sleep,10.04607,0.356736,1.812411,-0.055424,0.023982,-0.014123,81574
2025-02-26 01:05:47.356003,sleep,10.05325,0.361524,1.833959,-0.054625,0.022116,-0.015188,81525
2025-02-26 01:05:47.356003,sleep,10.05325,0.371101,1.836353,-0.054358,0.023449,-0.014389,81497
2025-02-26 01:05:47.356003,sleep,10.05086,0.35913,1.788469,-0.054625,0.025314,-0.015188,81479
2025-02-26 01:05:47.356003,sleep,10.05325,0.344765,1.824382,-0.054625,0.023182,-0.014389,81479
2025-02-26 01:05:47.356003,sleep,10.04128,0.354342,1.798046,-0.055158,0.024515,-0.014389,81436
2025-02-26 01:05:47.356003,sleep,10.04368,0.344765,1.824382,-0.054891,0.023982,-0.014123,81450
2025-02-26 01:05:47.356003,sleep,10.03889,0.363919,1.80044,-0.054891,0.023182,-0.015188,81499
2025-02-26 01:05:47.356003,sleep,10.06283,0.35913,1.807622,-0.055158,0.024248,-0.015188,81512
2025-02-26 01:05:47.356003,sleep,10.04368,0.363919,1.833959,-0.053825,0.024248,-0.014922,81534
2025-02-26 01:05:47.356003,sleep,10.03649,0.35913,1.790863,-0.054358,0.025314,-0.013856,81578
2025-02-26 01:05:47.356003,sleep,10.05804,0.373495,1.814805,-0.054891,0.023449,-0.014655,81589
2025-02-26 01:05:47.356003,sleep,10.0341,0.335188,1.833959,-0.054891,0.022116,-0.015721,81562
2025-02-26 01:05:47.356003,sleep,10.05804,0.361524,1.819593,-0.055158,0.023182,-0.015188,81597
2025-02-26 01:05:47.356003,sleep,10.03649,0.349553,1.798046,-0.055158,0.023182,-0.014123,81609
2025-02-26 01:05:47.356003,sleep,10.03889,0.356736,1.824382,-0.055424,0.024248,-0.014123,81597
2025-02-26 01:05:47.356003,sleep,10.04368,0.351948,1.838747,-0.054625,0.023982,-0.014123,81666
2025-02-26 01:05:47.356003,sleep,10.05086,0.349553,1.82917,-0.054625,0.024515,-0.014655,81679
2025-02-26 01:05:47.356003,sleep,10.05086,0.347159,1.819593,-0.054358,0.023449,-0.014123,81642
2025-02-26 01:05:47.356003,sleep,10.04846,0.337582,1.826776,-0.055158,0.024515,-0.014655,81586
2025-02-26 01:05:47.356003,sleep,10.04368,0.347159,1.819593,-0.054625,0.021583,-0.014922,81556
2025-02-26 01:05:47.356003,sleep,10.05325,0.344765,1.790863,-0.054625,0.024781,-0.015455,81580
2025-02-26 01:05:47.356003,sleep,10.04846,0.356736,1.807622,-0.054891,0.026113,-0.013856,81599
2025-02-26 01:05:47.356003,sleep,10.07241,0.342371,1.814805,-0.054625,0.020251,-0.014655,81602
2025-02-26 01:05:47.356003,sleep,10.03889,0.351948,1.80044,-0.054358,0.020784,-0.015188,81601
2025-02-26 01:05:47.356003,sleep,10.04846,0.354342,1.817199,-0.054625,0.02638,-0.014922,81531
2025-02-26 01:05:47.356003,sleep,10.05086,0.35913,1.805228,-0.055424,0.025047,-0.015455,81492
2025-02-26 01:05:47.356003,sleep,10.04368,0.354342,1.80044,-0.054891,0.023449,-0.015721,81404
2025-02-26 01:05:47.356003,sleep,10.04128,0.349553,1.814805,-0.055158,0.024515,-0.014655,81353
2025-02-26 01:05:47.356003,sleep,10.04368,0.347159,1.807622,-0.054625,0.022649,-0.015721,81317
2025-02-26 01:05:47.356003,sleep,10.04128,0.344765,1.810017,-0.054625,0.021583,-0.014655,81287
2025-02-26 01:05:47.356003,sleep,10.05565,0.344765,1.819593,-0.054625,0.024248,-0.014655,81313
2025-02-26 01:05:47.356003,sleep,10.04607,0.368707,1.80044,-0.055424,0.023982,-0.014655,81353
2025-02-26 01:05:47.356003,sleep,10.04846,0.344765,1.812411,-0.054891,0.024781,-0.014655,81357
2025-02-26 01:05:47.356003,sleep,10.04128,0.344765,1.788469,-0.054358,0.023982,-0.014655,81400
2025-02-26 01:05:47.356003,sleep,10.0317,0.342371,1.802834,-0.055158,0.023982,-0.013856,81418
2025-02-26 01:05:47.356003,sleep,10.0341,0.356736,1.821988,-0.054891,0.024515,-0.014655,81353
2025-02-26 01:05:47.356003,sleep,10.02452,0.35913,1.802834,-0.054625,0.022383,-0.013856,81430
2025-02-26 01:05:47.356003,sleep,10.04368,0.373495,1.807622,-0.055158,0.026113,-0.013323,81384
2025-02-26 01:05:47.356003,sleep,10.05086,0.347159,1.833959,-0.054891,0.027446,-0.013323,81406
2025-02-26 01:05:47.356003,sleep,10.04846,0.363919,1.814805,-0.054625,0.022916,-0.015455,81404
2025-02-26 01:05:47.356003,sleep,10.06522,0.351948,1.798046,-0.055158,0.022916,-0.015455,81444
2025-02-26 01:05:47.356003,sleep,10.03889,0.35913,1.810017,-0.055424,0.024515,-0.014389,81472
2025-02-26 01:05:47.356003,sleep,10.04128,0.351948,1.810017,-0.055158,0.023449,-0.015455,81522
2025-02-26 01:05:47.356003,sleep,10.05086,0.37589,1.805228,-0.054092,0.023182,-0.015188,81545
2025-02-26 01:05:47.356003,sleep,10.05804,0.368707,1.812411,-0.055158,0.025314,-0.01359,81568
2025-02-26 01:05:47.356003,sleep,10.04128,0.344765,1.833959,-0.054625,0.023715,-0.013856,81570
2025-02-26 01:05:47.356003,sleep,10.05565,0.371101,1.84593,-0.054092,0.025047,-0.013856,81584
2025-02-26 01:05:47.358009,sleep,10.07959,0.361524,1.810017,-0.056224,0.024781,-0.015455,81650
2025-02-26 01:05:47.358009,sleep,10.07241,0.356736,1.805228,-0.055424,0.023449,-0.014389,81664
2025-02-26 01:05:47.358009,sleep,10.06283,0.349553,1.836353,-0.055424,0.022649,-0.014655,81699
2025-02-26 01:05:47.358009,sleep,10.03889,0.335188,1.82917,-0.054625,0.024515,-0.014922,81681
2025-02-26 01:05:47.358009,sleep,10.04368,0.347159,1.802834,-0.055424,0.024515,-0.014655,81702
2025-02-26 01:05:47.358009,sleep,10.05804,0.356736,1.807622,-0.053825,0.023449,-0.014922,81620
2025-02-26 01:05:47.358009,sleep,10.05325,0.354342,1.824382,-0.054891,0.022916,-0.014922,81632
2025-02-26 01:05:47.358009,sleep,10.04607,0.351948,1.819593,-0.054625,0.023715,-0.014123,81680
2025-02-26 01:05:47.358009,sleep,10.02452,0.35913,1.824382,-0.055424,0.024515,-0.014655,81726
2025-02-26 01:05:47.358009,sleep,10.03649,0.344765,1.817199,-0.054092,0.025047,-0.014922,81749
2025-02-26 01:05:47.358009,sleep,10.06283,0.351948,1.821988,-0.054358,0.023449,-0.014123,81684
2025-02-26 01:05:47.358009,sleep,10.05086,0.368707,1.850718,-0.054625,0.023715,-0.014123,81690
2025-02-26 01:05:47.358009,sleep,10.0341,0.344765,1.80044,-0.055158,0.024781,-0.01359,81667
2025-02-26 01:05:47.358009,sleep,10.05565,0.35913,1.798046,-0.054358,0.024781,-0.014389,81679
2025-02-26 01:05:47.358009,sleep,10.04368,0.354342,1.802834,-0.054358,0.024248,-0.015188,81668
2025-02-26 01:05:47.358009,sleep,10.04368,0.347159,1.793257,-0.054891,0.023182,-0.014389,81645
2025-02-26 01:05:47.358009,sleep,10.02931,0.356736,1.798046,-0.055424,0.024781,-0.014389,81672
2025-02-26 01:05:47.358009,sleep,10.03649,0.347159,1.824382,-0.054891,0.022916,-0.014123,81692
2025-02-26 01:05:47.358009,sleep,10.05086,0.342371,1.812411,-0.054358,0.023715,-0.014922,81743
2025-02-26 01:05:47.358009,sleep,10.05086,0.354342,1.821988,-0.054891,0.023715,-0.014922,81713
2025-02-26 01:05:47.358009,sleep,10.06044,0.361524,1.805228,-0.055158,0.023182,-0.014655,81672
2025-02-26 01:05:47.358009,sleep,10.03649,0.356736,1.817199,-0.054891,0.02558,-0.014123,81726
2025-02-26 01:05:47.358009,sleep,10.04128,0.37589,1.802834,-0.055158,0.022649,-0.014389,81747
2025-02-26 01:05:47.358009,sleep,10.04607,0.363919,1.833959,-0.055158,0.024515,-0.013856,81794
2025-02-26 01:05:47.358009,sleep,10.05086,0.349553,1.850718,-0.055158,0.024515,-0.013856,81815
2025-02-26 01:05:47.358009,sleep,10.02692,0.35913,1.82917,-0.055158,0.022916,-0.014389,81859
2025-02-26 01:05:47.358009,sleep,10.04128,0.356736,1.814805,-0.053559,0.022916,-0.014922,81839
2025-02-26 01:05:47.358009,sleep,10.06283,0.35913,1.826776,-0.054358,0.02185,-0.014655,81768
2025-02-26 01:05:47.358009,sleep,10.03889,0.366313,1.812411,-0.054891,0.025047,-0.014389,81743
2025-02-26 01:05:47.358009,sleep,10.03649,0.349553,1.82917,-0.055158,0.023982,-0.014655,81714
2025-02-26 01:05:47.358009,sleep,10.04368,0.361524,1.817199,-0.054358,0.019185,-0.016787,81715
2025-02-26 01:05:47.358009,sleep,10.05086,0.351948,1.793257,-0.054358,0.024781,-0.015721,81699
2025-02-26 01:05:47.358009,sleep,10.04128,0.356736,1.82917,-0.055158,0.026646,-0.014123,81712
2025-02-26 01:05:47.358009,sleep,10.05804,0.349553,1.812411,-0.055158,0.025847,-0.014123,81647
2025-02-26 01:05:47.358009,sleep,10.02931,0.339977,1.807622,-0.054891,0.023182,-0.015188,81636
2025-02-26 01:05:47.358009,sleep,10.04607,0.351948,1.836353,-0.055158,0.022649,-0.014922,81559
2025-02-26 01:05:47.358009,sleep,10.05086,0.373495,1.84593,-0.055424,0.02185,-0.015188,81503
2025-02-26 01:05:47.358009,sleep,10.05086,0.366313,1.824382,-0.055158,0.023715,-0.01359,81483
2025-02-26 01:05:47.358009,sleep,10.0341,0.339977,1.824382,-0.054358,0.025047,-0.014922,81467
2025-02-26 01:05:47.358009,sleep,10.0341,0.366313,1.812411,-0.054625,0.023449,-0.014922,81495
2025-02-26 01:05:47.358009,sleep,10.04607,0.354342,1.819593,-0.054891,0.022916,-0.014123,81476
2025-02-26 01:05:47.358009,sleep,10.04128,0.354342,1.812411,-0.055424,0.024781,-0.014389,81496
2025-02-26 01:05:47.358009,sleep,10.04846,0.366313,1.848324,-0.054092,0.025314,-0.014123,81541
2025-02-26 01:05:47.358009,sleep,10.06283,0.356736,1.833959,-0.054891,0.023982,-0.014389,81527
2025-02-26 01:05:47.358009,sleep,10.02931,0.354342,1.80044,-0.054891,0.022649,-0.014389,81476
2025-02-26 01:05:47.358009,sleep,10.04368,0.349553,1.821988,-0.054625,0.026113,-0.013323,81590
2025-02-26 01:05:47.358009,sleep,10.05086,0.349553,1.814805,-0.054625,0.023449,-0.014655,81582
2025-02-26 01:05:47.358009,sleep,10.04846,0.361524,1.790863,-0.054625,0.019718,-0.015455,81614
2025-02-26 01:05:47.358009,sleep,10.05325,0.351948,1.817199,-0.055158,0.022916,-0.014123,81646
2025-02-26 01:05:47.358009,sleep,10.06044,0.378284,1.812411,-0.055957,0.023715,-0.014123,81634
2025-02-26 01:05:47.358009,sleep,10.06283,0.351948,1.814805,-0.055691,0.023449,-0.015455,81638
2025-02-26 01:05:47.358009,sleep,10.05565,0.363919,1.795651,-0.054358,0.024248,-0.014655,81567
2025-02-26 01:05:47.358009,sleep,10.04128,0.363919,1.807622,-0.054891,0.024781,-0.014922,81546
2025-02-26 01:05:47.358009,sleep,10.01973,0.35913,1.82917,-0.055424,0.023449,-0.013856,81521
2025-02-26 01:05:47.358009,sleep,10.04128,0.347159,1.805228,-0.054625,0.023449,-0.015721,81533
2025-02-26 01:05:47.358009,sleep,10.05804,0.356736,1.82917,-0.054358,0.023182,-0.015188,81587
2025-02-26 01:05:47.358009,sleep,10.06522,0.347159,1.821988,-0.054891,0.023182,-0.015188,81584
2025-02-26 01:05:47.358009,sleep,10.04846,0.354342,1.817199,-0.055424,0.02185,-0.015188,81548
2025-02-26 01:05:47.358009,sleep,10.05565,0.361524,1.82917,-0.055691,0.023715,-0.014655,81523
2025-02-26 01:05:47.358009,sleep,10.03889,0.363919,1.786075,-0.055158,0.022649,-0.01359,81531
2025-02-26 01:05:47.358009,sleep,10.07241,0.354342,1.814805,-0.054891,0.024515,-0.014389,81528
2025-02-26 01:05:47.358009,sleep,10.06762,0.356736,1.80044,-0.054625,0.023182,-0.014123,81518
2025-02-26 01:05:47.358009,sleep,10.05804,0.354342,1.810017,-0.055424,0.024515,-0.014389,81524
2025-02-26 01:05:47.358009,sleep,10.04846,0.354342,1.802834,-0.055424,0.025047,-0.015455,81511
2025-02-26 01:05:47.358009,sleep,10.02452,0.351948,1.790863,-0.054625,0.024248,-0.014123,81523
2025-02-26 01:05:47.358009,sleep,10.0341,0.354342,1.826776,-0.054625,0.022916,-0.014655,81534
2025-02-26 01:05:47.358009,sleep,10.0317,0.361524,1.817199,-0.054891,0.022383,-0.015721,81604
2025-02-26 01:05:47.358009,sleep,10.04846,0.337582,1.810017,-0.055158,0.022649,-0.014655,81609
2025-02-26 01:05:47.358009,sleep,10.06283,0.347159,1.793257,-0.054891,0.023182,-0.014655,81635
2025-02-26 01:05:47.358009,sleep,10.0317,0.344765,1.788469,-0.054625,0.023715,-0.014389,81621
2025-02-26 01:05:47.358009,sleep,10.06522,0.349553,1.838747,-0.055691,0.023449,-0.014389,81621
2025-02-26 01:05:47.358009,sleep,10.04368,0.344765,1.821988,-0.055691,0.022649,-0.015721,81692
2025-02-26 01:05:47.358009,sleep,10.05086,0.363919,1.841141,-0.055158,0.022383,-0.014655,81730
2025-02-26 01:05:47.358009,sleep,10.03889,0.342371,1.831564,-0.055158,0.024781,-0.014389,81749
2025-02-26 01:05:47.358009,sleep,10.03889,0.361524,1.814805,-0.054625,0.024515,-0.014922,81753
2025-02-26 01:05:47.358009,sleep,10.02452,0.339977,1.793257,-0.054358,0.021317,-0.014922,81716
2025-02-26 01:05:47.358009,sleep,10.06283,0.356736,1.80044,-0.054891,0.025047,-0.013856,81671
2025-02-26 01:05:47.358009,sleep,10.06283,0.347159,1.824382,-0.054891,0.024515,-0.013856,81674
2025-02-26 01:05:47.358009,sleep,10.06522,0.351948,1.802834,-0.055691,0.02185,-0.014922,81687
2025-02-26 01:05:47.358009,sleep,10.0341,0.349553,1.807622,-0.054891,0.023715,-0.015188,81724
2025-02-26 01:05:47.358009,sleep,10.04128,0.363919,1.833959,-0.054625,0.024515,-0.014922,81722
2025-02-26 01:05:47.358009,sleep,10.03889,0.361524,1.833959,-0.055424,0.023715,-0.014655,81644
2025-02-26 01:05:47.358009,sleep,10.04368,0.368707,1.821988,-0.054625,0.023715,-0.015721,81592
2025-02-26 01:05:47.358009,sleep,10.06283,0.354342,1.84593,-0.054891,0.022649,-0.01359,81542
2025-02-26 01:05:47.358009,sleep,10.05565,0.344765,1.805228,-0.054891,0.021051,-0.014389,81557
2025-02-26 01:05:47.358009,sleep,10.0317,0.363919,1.80044,-0.054625,0.022116,-0.014389,81552
2025-02-26 01:05:47.358009,sleep,10.05565,0.344765,1.805228,-0.054625,0.02558,-0.014922,81538
2025-02-26 01:05:47.358009,sleep,10.04846,0.368707,1.819593,-0.054625,0.024515,-0.014389,81579
2025-02-26 01:05:47.358009,sleep,10.05325,0.378284,1.833959,-0.055424,0.023182,-0.01359,81557
