Timestamp,Label,AccelX,AccelY,AccelZ,GyroX,GyroY,GyroZ,IR
2025-02-26 08:22:59.864354,awake,9.998186,1.223437,1.122881,-0.052493,0.023982,-0.019985,118485
2025-02-26 08:22:59.864354,awake,10.00537,1.223437,1.115698,-0.053026,0.024781,-0.019452,118705
2025-02-26 08:22:59.864354,awake,10.01016,1.225831,1.077391,-0.052227,0.022649,-0.021051,118705
2025-02-26 08:22:59.864354,awake,10.01255,1.225831,1.11091,-0.053026,0.023982,-0.021051,118714
2025-02-26 08:22:59.864354,awake,10.02452,1.223437,1.125275,-0.053559,0.023449,-0.020518,118733
2025-02-26 08:22:59.864354,awake,10.00776,1.225831,1.134852,-0.052493,0.024515,-0.019718,118688
2025-02-26 08:22:59.864354,awake,10.01734,1.235408,1.106121,-0.052493,0.023715,-0.019985,118621
2025-02-26 08:22:59.864354,awake,9.998186,1.223437,1.125275,-0.052227,0.024515,-0.020518,118708
2025-02-26 08:22:59.864354,awake,10.01734,1.233014,1.077391,-0.05276,0.025047,-0.020251,118806
2025-02-26 08:22:59.864354,awake,10.05804,1.254562,1.11091,-0.053292,0.027712,-0.020784,118847
2025-02-26 08:22:59.864354,awake,9.976639,1.225831,1.156399,-0.052493,0.028511,-0.022649,118796
2025-02-26 08:22:59.864354,awake,10.02692,1.223437,1.127669,-0.053292,0.025047,-0.020784,118687
2025-02-26 08:22:59.864354,awake,10.02692,1.237802,1.091756,-0.053559,0.026113,-0.019985,118394
2025-02-26 08:22:59.864354,awake,10.00058,1.225831,1.118092,-0.05276,0.025047,-0.020251,117962
2025-02-26 08:22:59.864354,awake,10.01734,1.223437,1.113304,-0.05276,0.023715,-0.020784,117400
2025-02-26 08:22:59.864354,awake,10.01495,1.237802,1.122881,-0.052227,0.025047,-0.019718,116823
2025-02-26 08:22:59.864354,awake,10.0341,1.23062,1.125275,-0.052493,0.025314,-0.020518,116299
2025-02-26 08:22:59.864354,awake,10.02692,1.206678,1.132457,-0.053292,0.023182,-0.018386,116234
2025-02-26 08:22:59.864354,awake,9.995792,1.23062,1.106121,-0.053292,0.024781,-0.019185,116303
2025-02-26 08:22:59.864354,awake,10.02213,1.237802,1.122881,-0.052493,0.025847,-0.019985,116498
2025-02-26 08:22:59.864354,awake,10.00776,1.240196,1.113304,-0.053026,0.024515,-0.019718,116669
2025-02-26 08:22:59.864354,awake,10.01016,1.211466,1.086968,-0.052493,0.024248,-0.019452,116762
2025-02-26 08:22:59.864354,awake,10.00537,1.225831,1.096544,-0.052227,0.023982,-0.019452,116942
2025-02-26 08:22:59.864354,awake,10.01016,1.249773,1.115698,-0.053292,0.025847,-0.019985,117148
2025-02-26 08:22:59.864354,awake,10.00297,1.242591,1.120486,-0.053825,0.023715,-0.019985,117287
2025-02-26 08:22:59.864354,awake,10.00537,1.225831,1.106121,-0.053026,0.024248,-0.019718,117417
2025-02-26 08:22:59.864354,awake,10.00058,1.218649,1.096544,-0.053026,0.023715,-0.020518,117532
2025-02-26 08:22:59.864354,awake,10.01016,1.235408,1.125275,-0.053026,0.023715,-0.020251,117605
2025-02-26 08:22:59.864354,awake,10.00297,1.233014,1.122881,-0.053559,0.022649,-0.019985,117678
2025-02-26 08:22:59.864354,awake,10.00297,1.235408,1.096544,-0.053559,0.022649,-0.019985,117770
2025-02-26 08:22:59.864354,awake,10.01495,1.237802,1.101333,-0.053559,0.023449,-0.019452,117855
2025-02-26 08:22:59.864354,awake,10.01734,1.23062,1.120486,-0.051694,0.023449,-0.019718,117905
2025-02-26 08:22:59.864354,awake,9.991004,1.223437,1.127669,-0.053292,0.023182,-0.019452,117882
2025-02-26 08:22:59.864354,awake,10.01255,1.235408,1.115698,-0.052227,0.023715,-0.019452,117909
2025-02-26 08:22:59.864354,awake,10.00776,1.225831,1.106121,-0.053292,0.022916,-0.018919,117948
2025-02-26 08:22:59.864354,awake,9.986216,1.249773,1.118092,-0.052493,0.023449,-0.019985,117964
2025-02-26 08:22:59.864354,awake,10.00058,1.228225,1.134852,-0.053292,0.023715,-0.020518,118009
2025-02-26 08:22:59.864354,awake,9.995792,1.233014,1.120486,-0.053026,0.023449,-0.020518,118027
2025-02-26 08:22:59.864354,awake,10.01016,1.23062,1.09415,-0.052493,0.023982,-0.020251,118084
2025-02-26 08:22:59.864354,awake,10.01016,1.235408,1.130063,-0.053292,0.023182,-0.020251,118148
2025-02-26 08:22:59.864354,awake,9.993398,1.225831,1.101333,-0.053026,0.023449,-0.019985,118250
2025-02-26 08:22:59.864354,awake,10.01255,1.221043,1.098939,-0.052493,0.023982,-0.019718,118351
2025-02-26 08:22:59.864354,awake,10.01255,1.237802,1.113304,-0.053026,0.02558,-0.020518,118084
2025-02-26 08:22:59.864354,awake,10.04368,1.235408,1.113304,-0.05276,0.029044,-0.021583,118466
2025-02-26 08:22:59.864354,awake,10.00297,1.221043,1.130063,-0.053026,0.026113,-0.021317,118527
2025-02-26 08:22:59.864354,awake,10.01973,1.235408,1.108515,-0.053825,0.025047,-0.019185,118564
2025-02-26 08:22:59.864354,awake,10.00058,1.23062,1.098939,-0.053026,0.025047,-0.020518,118554
2025-02-26 08:22:59.864354,awake,10.01255,1.218649,1.089362,-0.053825,0.024515,-0.019718,118610
2025-02-26 08:22:59.864354,awake,10.00537,1.218649,1.120486,-0.05196,0.023449,-0.019185,118620
2025-02-26 08:22:59.864354,awake,10.01495,1.240196,1.072602,-0.05196,0.021317,-0.019452,118663
2025-02-26 08:22:59.864354,awake,9.97185,1.233014,1.163582,-0.052227,0.022916,-0.018919,118707
2025-02-26 08:22:59.864354,awake,10.0341,1.23062,1.118092,-0.053292,0.026646,-0.020251,118685
2025-02-26 08:22:59.864354,awake,9.976639,1.237802,1.130063,-0.05276,0.024515,-0.022116,118570
2025-02-26 08:22:59.864354,awake,10.02692,1.218649,1.079785,-0.052227,0.025047,-0.020784,118310
2025-02-26 08:22:59.864354,awake,9.995792,1.223437,1.096544,-0.052227,0.020251,-0.018652,117912
2025-02-26 08:22:59.864354,awake,10.01016,1.235408,1.144428,-0.053026,0.026646,-0.018386,117356
2025-02-26 08:22:59.864354,awake,9.981427,1.223437,1.122881,-0.051694,0.024248,-0.020518,116784
2025-02-26 08:22:59.864354,awake,10.02452,1.233014,1.082179,-0.052227,0.023982,-0.019718,116484
2025-02-26 08:22:59.864354,awake,9.97185,1.237802,1.106121,-0.05276,0.023449,-0.019452,116475
2025-02-26 08:22:59.864354,awake,10.01734,1.244985,1.086968,-0.05276,0.023182,-0.020251,116512
2025-02-26 08:22:59.864354,awake,10.01973,1.240196,1.122881,-0.052493,0.023182,-0.019985,116680
2025-02-26 08:22:59.864354,awake,10.02213,1.223437,1.122881,-0.053825,0.022383,-0.020518,116875
2025-02-26 08:22:59.864354,awake,10.02452,1.223437,1.11091,-0.053292,0.023182,-0.020251,116971
2025-02-26 08:22:59.864354,awake,9.998186,1.242591,1.11091,-0.052493,0.023449,-0.020251,117146
2025-02-26 08:22:59.864354,awake,10.02452,1.221043,1.082179,-0.05276,0.025847,-0.020251,117264
2025-02-26 08:22:59.864354,awake,10.01734,1.233014,1.113304,-0.052493,0.024248,-0.019452,117467
2025-02-26 08:22:59.864354,awake,10.00537,1.244985,1.125275,-0.053292,0.022649,-0.021317,117591
2025-02-26 08:22:59.864354,awake,10.01016,1.244985,1.115698,-0.05276,0.024248,-0.020518,117715
2025-02-26 08:22:59.864354,awake,10.00776,1.233014,1.120486,-0.053026,0.022916,-0.020784,117895
2025-02-26 08:22:59.864354,awake,10.00058,1.21386,1.101333,-0.053292,0.025314,-0.019452,118017
2025-02-26 08:22:59.864354,awake,10.0317,1.23062,1.134852,-0.053292,0.023982,-0.019718,118088
2025-02-26 08:22:59.864354,awake,10.01495,1.221043,1.079785,-0.05276,0.024515,-0.020251,118081
2025-02-26 08:22:59.864354,awake,10.0317,1.237802,1.106121,-0.053026,0.024515,-0.019718,118027
2025-02-26 08:22:59.864354,awake,10.01495,1.228225,1.134852,-0.052493,0.023449,-0.020251,117952
2025-02-26 08:22:59.864354,awake,10.01255,1.23062,1.11091,-0.053026,0.023449,-0.019985,117940
2025-02-26 08:22:59.864354,awake,10.01255,1.23062,1.098939,-0.053559,0.023982,-0.020784,118020
2025-02-26 08:22:59.864354,awake,10.00776,1.225831,1.132457,-0.053559,0.023715,-0.019718,118108
2025-02-26 08:22:59.864354,awake,10.01973,1.237802,1.108515,-0.053026,0.023715,-0.019452,118190
2025-02-26 08:22:59.864354,awake,10.01734,1.218649,1.103727,-0.053292,0.024515,-0.019985,118189
2025-02-26 08:22:59.864354,awake,9.995792,1.223437,1.125275,-0.053559,0.023982,-0.020251,118266
2025-02-26 08:22:59.864354,awake,9.979033,1.244985,1.132457,-0.052227,0.024515,-0.019985,118388
2025-02-26 08:22:59.864354,awake,10.00776,1.235408,1.125275,-0.05276,0.022383,-0.019718,118505
2025-02-26 08:22:59.864354,awake,10.01495,1.223437,1.108515,-0.052227,0.023982,-0.019985,118577
2025-02-26 08:22:59.864354,awake,10.01734,1.221043,1.125275,-0.053292,0.023449,-0.020251,118619
2025-02-26 08:22:59.864354,awake,10.00776,1.23062,1.096544,-0.052227,0.023715,-0.019985,118735
2025-02-26 08:22:59.864354,awake,10.02452,1.242591,1.120486,-0.05196,0.023982,-0.020784,118828
2025-02-26 08:22:59.864354,awake,9.993398,1.237802,1.134852,-0.05196,0.023182,-0.019452,118961
2025-02-26 08:22:59.864354,awake,10.02452,1.235408,1.113304,-0.05196,0.023982,-0.019718,119085
2025-02-26 08:22:59.864354,awake,10.02452,1.211466,1.098939,-0.05276,0.025847,-0.019718,118735
2025-02-26 08:22:59.864354,awake,10.01255,1.23062,1.108515,-0.051694,0.022649,-0.019452,119311
2025-02-26 08:22:59.864354,awake,9.995792,1.228225,1.137246,-0.05276,0.022916,-0.019985,119382
2025-02-26 08:22:59.864354,awake,10.01255,1.221043,1.106121,-0.053026,0.023449,-0.020518,119481
2025-02-26 08:22:59.864354,awake,10.01255,1.235408,1.09415,-0.052493,0.022383,-0.019985,119504
2025-02-26 08:22:59.864354,awake,10.01495,1.254562,1.122881,-0.052227,0.023449,-0.021051,119600
2025-02-26 08:22:59.864354,awake,10.01255,1.235408,1.113304,-0.053292,0.025047,-0.020784,119609
2025-02-26 08:22:59.864354,awake,9.993398,1.235408,1.122881,-0.052493,0.024248,-0.019452,119573
2025-02-26 08:22:59.864354,awake,10.00776,1.221043,1.091756,-0.05276,0.023715,-0.019718,119410
2025-02-26 08:22:59.864354,awake,10.01734,1.244985,1.115698,-0.052227,0.024515,-0.019718,119068
2025-02-26 08:22:59.864354,awake,10.01255,1.225831,1.11091,-0.052493,0.02558,-0.020251,118698
2025-02-26 08:22:59.864354,awake,10.01734,1.233014,1.122881,-0.052493,0.024248,-0.020251,118230
2025-02-26 08:22:59.864354,awake,10.01495,1.225831,1.096544,-0.053559,0.023449,-0.020251,117594
2025-02-26 08:22:59.864354,awake,10.02452,1.244985,1.103727,-0.053026,0.022649,-0.021051,117299
2025-02-26 08:22:59.864354,awake,10.00297,1.218649,1.115698,-0.051694,0.023982,-0.019985,117088
2025-02-26 08:22:59.864354,awake,10.00776,1.225831,1.134852,-0.052227,0.023982,-0.019985,117127
2025-02-26 08:22:59.864354,awake,10.02452,1.23062,1.103727,-0.052493,0.024781,-0.020251,117171
2025-02-26 08:22:59.864354,awake,10.01495,1.244985,1.103727,-0.051427,0.024248,-0.019452,117204
2025-02-26 08:22:59.864354,awake,10.00776,1.242591,1.151611,-0.05276,0.024248,-0.020518,117237
2025-02-26 08:22:59.864354,awake,10.03889,1.249773,1.127669,-0.053292,0.025047,-0.021317,117318
2025-02-26 08:22:59.864354,awake,10.01016,1.244985,1.122881,-0.052227,0.025314,-0.020518,117386
2025-02-26 08:22:59.864354,awake,10.02692,1.221043,1.11091,-0.05196,0.023715,-0.019718,117488
2025-02-26 08:22:59.864354,awake,10.00058,1.225831,1.098939,-0.052227,0.023715,-0.019718,117536
2025-02-26 08:22:59.864354,awake,10.00776,1.225831,1.115698,-0.052493,0.024248,-0.020518,117631
2025-02-26 08:22:59.864354,awake,10.00297,1.225831,1.118092,-0.052493,0.023982,-0.020784,117676
2025-02-26 08:22:59.864354,awake,10.00058,1.244985,1.132457,-0.052493,0.024248,-0.019452,117773
2025-02-26 08:22:59.864354,awake,10.0341,1.244985,1.118092,-0.053292,0.025314,-0.020518,117784
2025-02-26 08:22:59.864354,awake,10.01973,1.223437,1.09415,-0.05196,0.025047,-0.020251,117705
2025-02-26 08:22:59.864354,awake,10.02931,1.252167,1.098939,-0.053559,0.023982,-0.019452,117709
2025-02-26 08:22:59.864354,awake,10.00537,1.242591,1.086968,-0.052493,0.024515,-0.019985,117696
2025-02-26 08:22:59.864354,awake,10.01495,1.223437,1.122881,-0.053559,0.022916,-0.021051,117635
2025-02-26 08:22:59.864354,awake,10.00776,1.218649,1.082179,-0.05276,0.024248,-0.020518,117740
2025-02-26 08:22:59.864354,awake,10.0317,1.237802,1.108515,-0.05276,0.024248,-0.019985,117748
2025-02-26 08:22:59.864354,awake,10.01495,1.233014,1.103727,-0.052493,0.024781,-0.020251,117811
2025-02-26 08:22:59.864354,awake,9.998186,1.237802,1.115698,-0.05276,0.023982,-0.020251,117849
2025-02-26 08:22:59.864354,awake,10.01495,1.21386,1.108515,-0.05276,0.024781,-0.021317,117933
2025-02-26 08:22:59.864354,awake,10.02452,1.223437,1.142034,-0.05276,0.024781,-0.019985,118062
2025-02-26 08:22:59.864354,awake,10.00776,1.228225,1.132457,-0.05276,0.026113,-0.020518,118123
2025-02-26 08:22:59.864354,awake,10.0317,1.233014,1.142034,-0.05276,0.025047,-0.020784,118182
2025-02-26 08:22:59.864354,awake,10.01973,1.235408,1.115698,-0.053559,0.025047,-0.020251,118203
2025-02-26 08:22:59.864354,awake,10.00058,1.223437,1.11091,-0.05276,0.024515,-0.020518,118266
2025-02-26 08:22:59.864354,awake,10.00297,1.223437,1.146823,-0.051694,0.023182,-0.019718,118281
2025-02-26 08:22:59.864354,awake,10.01495,1.240196,1.106121,-0.053559,0.023182,-0.020784,118340
2025-02-26 08:22:59.864354,awake,10.00537,1.221043,1.120486,-0.052493,0.023715,-0.019718,118372
2025-02-26 08:22:59.864354,awake,10.00776,1.223437,1.106121,-0.05276,0.023715,-0.020251,118482
2025-02-26 08:22:59.864354,awake,10.00297,1.233014,1.108515,-0.053292,0.023449,-0.019185,118534
2025-02-26 08:22:59.864354,awake,10.02692,1.235408,1.101333,-0.05276,0.023715,-0.019452,118545
2025-02-26 08:22:59.864354,awake,10.01255,1.23062,1.132457,-0.05276,0.02185,-0.019718,118571
2025-02-26 08:22:59.864354,awake,10.01255,1.244985,1.118092,-0.053026,0.023715,-0.019718,118652
2025-02-26 08:22:59.864354,awake,9.979033,1.221043,1.106121,-0.053026,0.024248,-0.020251,118693
2025-02-26 08:22:59.864354,awake,10.00776,1.254562,1.11091,-0.052227,0.025047,-0.019985,118704
2025-02-26 08:22:59.864354,awake,10.00058,1.218649,1.108515,-0.053292,0.024515,-0.019718,118741
2025-02-26 08:22:59.864354,awake,10.02213,1.221043,1.132457,-0.05276,0.024515,-0.018919,118756
2025-02-26 08:22:59.864354,awake,10.01973,1.225831,1.113304,-0.053292,0.023715,-0.019718,118693
2025-02-26 08:22:59.864354,awake,10.00297,1.235408,1.084573,-0.053825,0.024248,-0.019185,118350
2025-02-26 08:22:59.864354,awake,9.991004,1.244985,1.101333,-0.053825,0.023182,-0.020251,117936
2025-02-26 08:22:59.864354,awake,10.01734,1.228225,1.125275,-0.053559,0.025047,-0.018652,117491
2025-02-26 08:22:59.864354,awake,10.01016,1.228225,1.096544,-0.053026,0.025047,-0.019718,118693
2025-02-26 08:22:59.864354,awake,10.00297,1.233014,1.09415,-0.052493,0.023182,-0.020784,116711
2025-02-26 08:22:59.864354,awake,10.00297,1.233014,1.115698,-0.052493,0.022116,-0.019718,116728
2025-02-26 08:22:59.864354,awake,10.00776,1.209072,1.108515,-0.053292,0.023182,-0.020784,116762
2025-02-26 08:22:59.864354,awake,9.986216,1.23062,1.089362,-0.05276,0.023449,-0.021051,117029
2025-02-26 08:22:59.864354,awake,9.976639,1.221043,1.144428,-0.052493,0.021583,-0.019185,117158
2025-02-26 08:22:59.864354,awake,9.993398,1.240196,1.125275,-0.05276,0.023449,-0.021317,117219
2025-02-26 08:22:59.864354,awake,10.01973,1.221043,1.122881,-0.053292,0.025314,-0.020518,117213
2025-02-26 08:22:59.864354,awake,10.01973,1.247379,1.115698,-0.05276,0.024248,-0.020251,117268
2025-02-26 08:22:59.864354,awake,10.00297,1.228225,1.096544,-0.053026,0.024248,-0.019452,117396
2025-02-26 08:22:59.864354,awake,10.01495,1.242591,1.122881,-0.053292,0.022916,-0.020518,117507
2025-02-26 08:22:59.864354,awake,9.983821,1.211466,1.125275,-0.053559,0.023449,-0.020251,117663
2025-02-26 08:22:59.864354,awake,9.998186,1.235408,1.098939,-0.053559,0.023982,-0.020251,117678
2025-02-26 08:22:59.864354,awake,9.995792,1.225831,1.096544,-0.053825,0.025047,-0.020518,117709
2025-02-26 08:22:59.864354,awake,10.01495,1.221043,1.113304,-0.05276,0.023982,-0.021051,117733
2025-02-26 08:22:59.864354,awake,10.01255,1.23062,1.091756,-0.053026,0.024248,-0.019985,117684
2025-02-26 08:22:59.864354,awake,10.00537,1.21386,1.120486,-0.052227,0.024248,-0.019452,117639
2025-02-26 08:22:59.864354,awake,10.00776,1.240196,1.127669,-0.05276,0.023715,-0.019718,117562
2025-02-26 08:22:59.864354,awake,9.998186,1.233014,1.098939,-0.053026,0.024248,-0.019185,117564
2025-02-26 08:22:59.864354,awake,10.01255,1.218649,1.144428,-0.053026,0.024781,-0.020251,117641
2025-02-26 08:22:59.864354,awake,10.02452,1.23062,1.115698,-0.052493,0.026913,-0.020251,117720
2025-02-26 08:22:59.864354,awake,10.01973,1.233014,1.122881,-0.053292,0.024781,-0.021583,117863
2025-02-26 08:22:59.864354,awake,10.01255,1.223437,1.115698,-0.052493,0.022383,-0.020251,117944
2025-02-26 08:22:59.864354,awake,10.00058,1.233014,1.09415,-0.053026,0.022383,-0.018919,117992
2025-02-26 08:22:59.864354,awake,9.981427,1.240196,1.096544,-0.05276,0.023449,-0.020251,118016
2025-02-26 08:22:59.864354,awake,10.01734,1.209072,1.13964,-0.053026,0.023449,-0.020518,118078
2025-02-26 08:22:59.864354,awake,9.983821,1.223437,1.127669,-0.05276,0.023982,-0.019985,118222
2025-02-26 08:22:59.864354,awake,10.02452,1.23062,1.125275,-0.05196,0.023982,-0.019985,118332
2025-02-26 08:22:59.864354,awake,10.00776,1.237802,1.101333,-0.053825,0.024248,-0.020251,118491
2025-02-26 08:22:59.864354,awake,10.00537,1.216254,1.084573,-0.05276,0.022116,-0.020251,118579
2025-02-26 08:22:59.864354,awake,10.00297,1.235408,1.122881,-0.05276,0.023715,-0.019985,118563
2025-02-26 08:22:59.864354,awake,9.988609,1.240196,1.134852,-0.052493,0.023715,-0.020251,118590
2025-02-26 08:22:59.864354,awake,10.00776,1.242591,1.11091,-0.053292,0.023982,-0.019718,118613
2025-02-26 08:22:59.864354,awake,9.998186,1.23062,1.118092,-0.052493,0.023182,-0.019985,118694
2025-02-26 08:22:59.864354,awake,10.00297,1.223437,1.113304,-0.053026,0.024515,-0.020518,118861
2025-02-26 08:22:59.864354,awake,10.01495,1.235408,1.070208,-0.052227,0.022916,-0.019718,118955
2025-02-26 08:22:59.864354,awake,10.01016,1.221043,1.127669,-0.053292,0.024781,-0.019985,118975
2025-02-26 08:22:59.864354,awake,10.01255,1.216254,1.101333,-0.053559,0.024781,-0.020784,119033
2025-02-26 08:22:59.864354,awake,9.993398,1.244985,1.127669,-0.053026,0.023982,-0.021051,119095
2025-02-26 08:22:59.864354,awake,10.02692,1.23062,1.086968,-0.052493,0.022916,-0.019185,118909
2025-02-26 08:22:59.864354,awake,10.02931,1.218649,1.146823,-0.052227,0.025047,-0.019185,118592
2025-02-26 08:22:59.864354,awake,10.00537,1.237802,1.106121,-0.053825,0.025847,-0.020251,118220
2025-02-26 08:22:59.864354,awake,10.02692,1.221043,1.103727,-0.053292,0.024781,-0.018919,117786
2025-02-26 08:22:59.864354,awake,10.00537,1.23062,1.108515,-0.053292,0.023715,-0.019452,118909
2025-02-26 08:22:59.864354,awake,10.01255,1.228225,1.113304,-0.05276,0.022116,-0.019718,116997
2025-02-26 08:22:59.864354,awake,10.00776,1.223437,1.132457,-0.051694,0.02185,-0.019718,117018
2025-02-26 08:22:59.864354,awake,10.00776,1.244985,1.115698,-0.05276,0.023982,-0.019718,117786
2025-02-26 08:22:59.864354,awake,10.01495,1.252167,1.120486,-0.052493,0.023449,-0.019718,117340
2025-02-26 08:22:59.864354,awake,10.01495,1.240196,1.142034,-0.052493,0.024515,-0.020251,117500
2025-02-26 08:22:59.864354,awake,10.01495,1.240196,1.11091,-0.053292,0.02558,-0.020251,117722
2025-02-26 08:22:59.864354,awake,10.01734,1.237802,1.103727,-0.05276,0.023715,-0.019718,117799
2025-02-26 08:22:59.864354,awake,10.00058,1.244985,1.089362,-0.053026,0.022916,-0.019985,118042
2025-02-26 08:22:59.864354,awake,10.01016,1.235408,1.082179,-0.053292,0.022649,-0.020251,118167
2025-02-26 08:22:59.864354,awake,10.01734,1.228225,1.108515,-0.052493,0.022383,-0.019718,118291
2025-02-26 08:22:59.864354,awake,10.00537,1.256956,1.130063,-0.05276,0.023982,-0.019185,118367
2025-02-26 08:22:59.864354,awake,10.02452,1.233014,1.137246,-0.05196,0.022649,-0.019185,118440
2025-02-26 08:22:59.864354,awake,10.0317,1.23062,1.086968,-0.05276,0.023182,-0.018919,118500
2025-02-26 08:22:59.864354,awake,10.00776,1.225831,1.089362,-0.052227,0.021583,-0.019985,118593
2025-02-26 08:22:59.864354,awake,9.995792,1.228225,1.098939,-0.05276,0.022649,-0.020251,118613
2025-02-26 08:22:59.864354,awake,10.01734,1.225831,1.113304,-0.053026,0.023449,-0.019718,118687
2025-02-26 08:22:59.864354,awake,10.01734,1.233014,1.130063,-0.05276,0.023449,-0.019985,118686
2025-02-26 08:22:59.864354,awake,10.01495,1.228225,1.089362,-0.05276,0.025047,-0.020784,118718
2025-02-26 08:22:59.864354,awake,10.00537,1.244985,1.113304,-0.052227,0.02185,-0.020251,118681
2025-02-26 08:22:59.864354,awake,10.01255,1.225831,1.11091,-0.053292,0.024248,-0.020518,118663
2025-02-26 08:22:59.864354,awake,10.01016,1.216254,1.144428,-0.05276,0.024248,-0.020251,118659
2025-02-26 08:22:59.864354,awake,10.01495,1.240196,1.115698,-0.053292,0.025047,-0.021051,118700
2025-02-26 08:22:59.864354,awake,10.02213,1.233014,1.122881,-0.053026,0.02558,-0.020784,118751
2025-02-26 08:22:59.864354,awake,10.00297,1.223437,1.120486,-0.053825,0.025314,-0.020518,118752
2025-02-26 08:22:59.864354,awake,10.01734,1.235408,1.09415,-0.052493,0.024781,-0.020251,118731
2025-02-26 08:22:59.864354,awake,10.01495,1.225831,1.106121,-0.053026,0.024515,-0.020518,118727
2025-02-26 08:22:59.864354,awake,10.01973,1.233014,1.084573,-0.053026,0.023982,-0.019985,118758
2025-02-26 08:22:59.864354,awake,10.01016,1.235408,1.106121,-0.05196,0.022916,-0.020784,118692
2025-02-26 08:22:59.864354,awake,10.00297,1.235408,1.115698,-0.053559,0.023449,-0.021051,118623
2025-02-26 08:22:59.864354,awake,10.0317,1.235408,1.09415,-0.053026,0.023982,-0.020251,118702
2025-02-26 08:22:59.864354,awake,9.998186,1.228225,1.098939,-0.052493,0.022649,-0.019985,118719
2025-02-26 08:22:59.864354,awake,10.01016,1.209072,1.115698,-0.052493,0.024515,-0.019985,118692
2025-02-26 08:22:59.864354,awake,10.00058,1.247379,1.101333,-0.052493,0.023449,-0.020518,118834
2025-02-26 08:22:59.864354,awake,10.00776,1.228225,1.101333,-0.05276,0.023449,-0.021051,118907
2025-02-26 08:22:59.864354,awake,9.993398,1.23062,1.106121,-0.05276,0.024248,-0.019985,118812
2025-02-26 08:22:59.864354,awake,10.00776,1.233014,1.101333,-0.052493,0.024248,-0.020518,118528
2025-02-26 08:22:59.864354,awake,10.00537,1.242591,1.122881,-0.05196,0.023182,-0.020518,118190
2025-02-26 08:22:59.864354,awake,10.00537,1.240196,1.101333,-0.053026,0.024781,-0.020784,117873
2025-02-26 08:22:59.864354,awake,9.991004,1.216254,1.11091,-0.05276,0.022383,-0.020518,117535
2025-02-26 08:22:59.864354,awake,10.01973,1.249773,1.09415,-0.052227,0.023715,-0.019718,117189
2025-02-26 08:22:59.864354,awake,10.01734,1.233014,1.127669,-0.051694,0.023982,-0.019718,116966
2025-02-26 08:22:59.864354,awake,9.988609,1.235408,1.098939,-0.053026,0.024781,-0.019985,116969
2025-02-26 08:22:59.864354,awake,10.01734,1.244985,1.096544,-0.05276,0.022916,-0.020251,117088
2025-02-26 08:22:59.864354,awake,10.01016,1.23062,1.13964,-0.05276,0.024515,-0.020251,117233
2025-02-26 08:22:59.864354,awake,10.00776,1.237802,1.108515,-0.052227,0.024781,-0.020251,117430
2025-02-26 08:22:59.864354,awake,9.995792,1.244985,1.125275,-0.052227,0.023715,-0.019718,117515
2025-02-26 08:22:59.864354,awake,10.01016,1.221043,1.091756,-0.05276,0.022916,-0.019985,117613
2025-02-26 08:22:59.864354,awake,10.00537,1.225831,1.132457,-0.05196,0.023715,-0.019452,117665
2025-02-26 08:22:59.864354,awake,10.00058,1.233014,1.11091,-0.051694,0.022916,-0.019452,117795
2025-02-26 08:22:59.864354,awake,10.00776,1.235408,1.103727,-0.053026,0.023182,-0.019718,117899
2025-02-26 08:22:59.864354,awake,10.00776,1.225831,1.101333,-0.05196,0.024515,-0.019985,117966
2025-02-26 08:22:59.864354,awake,10.02452,1.235408,1.108515,-0.05276,0.023715,-0.020518,118005
2025-02-26 08:22:59.864354,awake,10.00297,1.221043,1.137246,-0.05276,0.02558,-0.020518,118018
2025-02-26 08:22:59.864354,awake,10.02692,1.216254,1.122881,-0.052493,0.023715,-0.020518,118044
2025-02-26 08:22:59.864354,awake,10.01495,1.221043,1.122881,-0.053292,0.024515,-0.020251,118060
2025-02-26 08:22:59.864354,awake,10.00537,1.23062,1.122881,-0.053559,0.024781,-0.020518,118057
2025-02-26 08:22:59.864354,awake,9.991004,1.223437,1.115698,-0.052493,0.024248,-0.019985,118018
2025-02-26 08:22:59.864354,awake,10.00058,1.223437,1.118092,-0.053292,0.023182,-0.020518,118117
2025-02-26 08:22:59.864354,awake,10.00776,1.244985,1.113304,-0.052493,0.023449,-0.019985,118172
2025-02-26 08:22:59.864354,awake,9.995792,1.240196,1.127669,-0.052227,0.024248,-0.020251,118283
2025-02-26 08:22:59.864354,awake,10.00297,1.240196,1.096544,-0.05196,0.023182,-0.019985,118390
2025-02-26 08:22:59.864354,awake,10.01255,1.228225,1.113304,-0.05276,0.023715,-0.020251,118465
2025-02-26 08:22:59.864354,awake,10.02692,1.23062,1.134852,-0.053292,0.025047,-0.020784,118510
2025-02-26 08:22:59.864354,awake,9.993398,1.209072,1.070208,-0.053559,0.023982,-0.02185,118450
2025-02-26 08:22:59.864354,awake,10.00537,1.199495,1.122881,-0.05196,0.009859,-0.017587,118502
2025-02-26 08:22:59.864354,awake,9.964667,1.23062,1.122881,-0.052493,0.018652,-0.018119,118539
2025-02-26 08:22:59.864354,awake,10.00537,1.223437,1.127669,-0.052227,0.022383,-0.021051,118573
2025-02-26 08:22:59.864354,awake,10.02692,1.240196,1.106121,-0.05276,0.021583,-0.019452,118600
2025-02-26 08:22:59.864354,awake,9.995792,1.235408,1.118092,-0.053026,0.023982,-0.019452,118571
2025-02-26 08:22:59.864354,awake,9.993398,1.225831,1.127669,-0.05196,0.024248,-0.020518,118575
2025-02-26 08:22:59.864354,awake,10.01734,1.242591,1.122881,-0.053292,0.024781,-0.018919,118623
2025-02-26 08:22:59.864354,awake,10.00776,1.223437,1.101333,-0.052493,0.025314,-0.020251,118597
2025-02-26 08:22:59.864354,awake,10.01255,1.206678,1.118092,-0.051694,0.024248,-0.020251,118572
2025-02-26 08:22:59.864354,awake,10.01016,1.244985,1.120486,-0.053559,0.024781,-0.019718,118345
2025-02-26 08:22:59.864354,awake,10.00058,1.233014,1.115698,-0.053559,0.023715,-0.020251,118033
2025-02-26 08:22:59.864354,awake,9.991004,1.225831,1.137246,-0.052227,0.02558,-0.020518,117656
2025-02-26 08:22:59.864354,awake,10.01973,1.225831,1.122881,-0.05276,0.024248,-0.020518,117273
2025-02-26 08:22:59.864354,awake,10.00058,1.240196,1.132457,-0.05196,0.02558,-0.020251,116802
2025-02-26 08:22:59.864354,awake,10.00537,1.223437,1.101333,-0.052227,0.023715,-0.019985,118033
2025-02-26 08:22:59.864354,awake,9.998186,1.240196,1.130063,-0.05196,0.023182,-0.020518,116540
2025-02-26 08:22:59.864354,awake,10.01495,1.225831,1.106121,-0.053559,0.024248,-0.021583,116637
2025-02-26 08:22:59.864354,awake,9.995792,1.254562,1.127669,-0.05196,0.023982,-0.020784,116775
2025-02-26 08:22:59.864354,awake,10.00058,1.252167,1.108515,-0.052227,0.025314,-0.019718,116950
2025-02-26 08:22:59.864354,awake,10.00537,1.228225,1.079785,-0.05276,0.023715,-0.019985,117043
2025-02-26 08:22:59.864354,awake,10.00058,1.235408,1.132457,-0.053559,0.023715,-0.021317,117088
2025-02-26 08:22:59.864354,awake,10.0317,1.233014,1.13964,-0.053559,0.025047,-0.019985,117114
2025-02-26 08:22:59.864354,awake,10.01973,1.266533,1.09415,-0.05196,0.024515,-0.020784,117195
2025-02-26 08:22:59.864354,awake,10.00537,1.21386,1.130063,-0.052493,0.023449,-0.019452,117269
2025-02-26 08:22:59.864354,awake,9.995792,1.218649,1.103727,-0.052493,0.022916,-0.020518,117404
2025-02-26 08:22:59.864354,awake,10.00297,1.235408,1.098939,-0.053292,0.023182,-0.020518,117548
2025-02-26 08:22:59.864354,awake,9.993398,1.211466,1.118092,-0.05276,0.022383,-0.019985,117630
2025-02-26 08:22:59.864354,awake,10.02692,1.223437,1.108515,-0.053026,0.023182,-0.020518,117584
2025-02-26 08:22:59.864354,awake,9.993398,1.197101,1.101333,-0.05276,0.023449,-0.019718,117576
2025-02-26 08:22:59.864354,awake,9.998186,1.211466,1.132457,-0.05196,0.021317,-0.019452,117602
2025-02-26 08:22:59.864354,awake,9.995792,1.23062,1.108515,-0.05276,0.024781,-0.020251,117611
2025-02-26 08:22:59.864354,awake,10.01973,1.228225,1.134852,-0.053559,0.023982,-0.020518,117631
2025-02-26 08:22:59.864354,awake,9.988609,1.218649,1.142034,-0.052493,0.023182,-0.019452,117701
2025-02-26 08:22:59.864354,awake,10.01734,1.228225,1.106121,-0.05276,0.024781,-0.019985,117784
2025-02-26 08:22:59.864354,awake,9.998186,1.225831,1.113304,-0.052493,0.023449,-0.020518,117872
2025-02-26 08:22:59.864354,awake,10.02452,1.228225,1.125275,-0.052227,0.023182,-0.019718,118034
2025-02-26 08:22:59.864354,awake,10.00058,1.247379,1.127669,-0.053292,0.023715,-0.019985,118099
2025-02-26 08:22:59.864354,awake,10.0317,1.244985,1.096544,-0.052493,0.024248,-0.020251,118259
2025-02-26 08:22:59.864354,awake,10.01973,1.237802,1.134852,-0.051694,0.023982,-0.019185,118325
2025-02-26 08:22:59.864354,awake,10.01734,1.240196,1.125275,-0.053026,0.022916,-0.019185,118436
2025-02-26 08:22:59.864354,awake,10.01016,1.244985,1.134852,-0.053026,0.023449,-0.019452,118578
2025-02-26 08:22:59.864354,awake,10.00776,1.247379,1.113304,-0.05276,0.022649,-0.019985,118670
2025-02-26 08:22:59.864354,awake,9.986216,1.252167,1.106121,-0.05276,0.023982,-0.019452,118725
2025-02-26 08:22:59.864354,awake,9.991004,1.242591,1.122881,-0.053292,0.024248,-0.019452,118716
2025-02-26 08:22:59.864354,awake,10.01734,1.235408,1.122881,-0.052493,0.023449,-0.019185,118764
2025-02-26 08:22:59.864354,awake,10.02452,1.216254,1.082179,-0.053559,0.023715,-0.018386,118814
2025-02-26 08:22:59.864354,awake,10.00297,1.228225,1.11091,-0.053292,0.023449,-0.018919,118901
