Timestamp,Label,AccelX,AccelY,AccelZ,GyroX,GyroY,GyroZ,IR
2025-02-26 08:23:26.958495,awake,10.02931,1.247379,1.086968,-0.05276,0.022916,-0.020518,116064
2025-02-26 08:23:26.958495,awake,9.952697,1.242591,1.11091,-0.054092,0.027179,-0.020518,116444
2025-02-26 08:23:26.958495,awake,10.00058,1.242591,1.079785,-0.054358,0.031709,-0.020518,117204
2025-02-26 08:23:26.958495,awake,10.00537,1.233014,1.089362,-0.054358,0.031709,-0.020251,117951
2025-02-26 08:23:26.958495,awake,10.02931,1.228225,1.070208,-0.054358,0.030377,-0.019452,118452
2025-02-26 08:23:26.958495,awake,9.986216,1.233014,1.096544,-0.054092,0.028245,-0.020251,118769
2025-02-26 08:23:26.958495,awake,10.01255,1.225831,1.125275,-0.053825,0.024781,-0.019985,118887
2025-02-26 08:23:26.958495,awake,10.02452,1.228225,1.084573,-0.051694,0.020251,-0.018386,118795
2025-02-26 08:23:26.958495,awake,10.00058,1.242591,1.108515,-0.05276,0.023715,-0.019718,118746
2025-02-26 08:23:26.958495,awake,9.986216,1.206678,1.101333,-0.05276,0.024781,-0.020784,118623
2025-02-26 08:23:26.958495,awake,10.01734,1.218649,1.096544,-0.053292,0.026646,-0.021051,118827
2025-02-26 08:23:26.958495,awake,10.01255,1.221043,1.125275,-0.053825,0.026913,-0.019985,119106
2025-02-26 08:23:26.958495,awake,9.969456,1.223437,1.079785,-0.052493,0.02558,-0.020251,119312
2025-02-26 08:23:26.958495,awake,9.993398,1.221043,1.079785,-0.053026,0.025314,-0.021317,119332
2025-02-26 08:23:26.958495,awake,9.981427,1.211466,1.120486,-0.052227,0.024248,-0.020518,119188
2025-02-26 08:23:26.958495,awake,10.05804,1.237802,1.103727,-0.051694,0.018119,-0.019452,118968
2025-02-26 08:23:26.958495,awake,10.05086,1.21386,1.118092,-0.05276,0.02185,-0.020251,119017
2025-02-26 08:23:26.958495,awake,10.01255,1.225831,1.084573,-0.052493,0.022383,-0.021051,119165
2025-02-26 08:23:26.958495,awake,10.03649,1.225831,1.108515,-0.05276,0.022649,-0.02185,119352
2025-02-26 08:23:26.958495,awake,9.979033,1.252167,1.127669,-0.052493,0.022916,-0.021051,119479
2025-02-26 08:23:26.958495,awake,9.957485,1.23062,1.118092,-0.052493,0.022116,-0.019985,119424
2025-02-26 08:23:26.958495,awake,10.01255,1.242591,1.120486,-0.05276,0.023982,-0.019718,119183
2025-02-26 08:23:26.958495,awake,10.01973,1.249773,1.09415,-0.052493,0.025047,-0.018919,118817
2025-02-26 08:23:26.958495,awake,9.976639,1.209072,1.125275,-0.052227,0.021051,-0.017587,118365
2025-02-26 08:23:26.958495,awake,9.988609,1.223437,1.134852,-0.05196,0.021583,-0.019452,117936
2025-02-26 08:23:26.958495,awake,10.0317,1.23062,1.074997,-0.053026,0.020518,-0.019718,117490
2025-02-26 08:23:26.958495,awake,10.0341,1.247379,1.082179,-0.053559,0.027179,-0.021051,117334
2025-02-26 08:23:26.958495,awake,9.993398,1.240196,1.108515,-0.052493,0.023982,-0.020784,117098
2025-02-26 08:23:26.958495,awake,9.988609,1.211466,1.120486,-0.053559,0.023182,-0.019985,117039
2025-02-26 08:23:26.958495,awake,9.993398,1.21386,1.11091,-0.052227,0.020251,-0.019452,116969
2025-02-26 08:23:26.958495,awake,9.97185,1.221043,1.122881,-0.05276,0.023182,-0.020518,117088
2025-02-26 08:23:26.958495,awake,9.974244,1.23062,1.11091,-0.053292,0.023982,-0.020784,117119
2025-02-26 08:23:26.958495,awake,10.00058,1.247379,1.060631,-0.053026,0.028778,-0.020518,117155
2025-02-26 08:23:26.958495,awake,10.11311,1.261744,1.125275,-0.052493,0.02558,-0.019985,117260
2025-02-26 08:23:26.958495,awake,10.01734,1.197101,1.115698,-0.053825,0.017587,-0.018652,117177
2025-02-26 08:23:26.958495,awake,9.991004,1.211466,1.137246,-0.053026,0.020784,-0.019185,117332
2025-02-26 08:23:26.958495,awake,10.0317,1.240196,1.108515,-0.051694,0.019452,-0.019985,117494
2025-02-26 08:23:26.958495,awake,10.04368,1.254562,1.077391,-0.05276,0.020784,-0.019985,117699
2025-02-26 08:23:26.958495,awake,10.01255,1.237802,1.113304,-0.052493,0.022383,-0.019452,117177
2025-02-26 08:23:26.958495,awake,9.902418,1.211466,1.096544,-0.053292,0.027712,-0.021317,117872
2025-02-26 08:23:26.958495,awake,10.0317,1.221043,1.084573,-0.053292,0.026646,-0.018919,117785
2025-02-26 08:23:26.958495,awake,10.01255,1.233014,1.079785,-0.051694,0.024781,-0.01732,117711
2025-02-26 08:23:26.958495,awake,10.03649,1.223437,1.132457,-0.052493,0.026113,-0.018652,117579
2025-02-26 08:23:26.958495,awake,10.03649,1.228225,1.096544,-0.053559,0.024781,-0.020518,117585
2025-02-26 08:23:26.958495,awake,9.995792,1.211466,1.122881,-0.05196,0.025314,-0.020518,117579
2025-02-26 08:23:26.958495,awake,10.02213,1.225831,1.096544,-0.05276,0.024515,-0.021583,117599
2025-02-26 08:23:26.958495,awake,10.00297,1.21386,1.113304,-0.053292,0.020784,-0.020518,117559
2025-02-26 08:23:26.958495,awake,9.991004,1.23062,1.115698,-0.052227,0.023182,-0.020518,117525
2025-02-26 08:23:26.958495,awake,10.01495,1.23062,1.118092,-0.051694,0.021583,-0.019718,117516
2025-02-26 08:23:26.958495,awake,9.993398,1.221043,1.122881,-0.052493,0.022116,-0.019185,117628
2025-02-26 08:23:26.958495,awake,9.955091,1.225831,1.089362,-0.053026,0.028778,-0.020784,117719
2025-02-26 08:23:26.958495,awake,9.979033,1.233014,1.086968,-0.054092,0.027979,-0.019718,117818
2025-02-26 08:23:26.958495,awake,10.11071,1.235408,1.134852,-0.05276,0.024248,-0.020784,117919
2025-02-26 08:23:26.958495,awake,10.02692,1.216254,1.122881,-0.05276,0.019185,-0.019452,117846
2025-02-26 08:23:26.958495,awake,9.952697,1.21386,1.118092,-0.053026,0.022116,-0.021583,117764
2025-02-26 08:23:26.958495,awake,10.01495,1.247379,1.108515,-0.052227,0.020518,-0.021317,117698
2025-02-26 08:23:26.958495,awake,10.0317,1.235408,1.091756,-0.052227,0.021583,-0.020518,117577
2025-02-26 08:23:26.958495,awake,9.983821,1.237802,1.084573,-0.05276,0.028245,-0.020518,117465
2025-02-26 08:23:26.958495,awake,9.988609,1.240196,1.108515,-0.053026,0.026113,-0.020251,117258
2025-02-26 08:23:26.958495,awake,9.995792,1.223437,1.118092,-0.053559,0.023982,-0.019185,116944
2025-02-26 08:23:26.958495,awake,10.00297,1.225831,1.103727,-0.05276,0.021583,-0.019452,116677
2025-02-26 08:23:26.958495,awake,9.983821,1.225831,1.072602,-0.051427,0.022916,-0.018386,116575
2025-02-26 08:23:26.958495,awake,10.01495,1.233014,1.11091,-0.05276,0.025847,-0.019985,116672
2025-02-26 08:23:26.958495,awake,10.00297,1.261744,1.130063,-0.053292,0.022916,-0.019718,116608
2025-02-26 08:23:26.958495,awake,9.974244,1.221043,1.101333,-0.052227,0.020518,-0.018386,116677
2025-02-26 08:23:26.958495,awake,10.00537,1.225831,1.09415,-0.05276,0.020518,-0.018386,116490
2025-02-26 08:23:26.958495,awake,10.00058,1.233014,1.084573,-0.052227,0.022116,-0.019985,116611
2025-02-26 08:23:26.958495,awake,10.01016,1.233014,1.098939,-0.052227,0.022916,-0.019718,116807
2025-02-26 08:23:26.958495,awake,9.986216,1.218649,1.084573,-0.053026,0.026646,-0.018919,116942
2025-02-26 08:23:26.958495,awake,10.03649,1.233014,1.130063,-0.052227,0.02638,-0.019718,117003
2025-02-26 08:23:26.958495,awake,10.03649,1.225831,1.118092,-0.052493,0.020251,-0.019452,116976
2025-02-26 08:23:26.958495,awake,10.01016,1.211466,1.118092,-0.052227,0.020784,-0.020251,116974
2025-02-26 08:23:26.958495,awake,10.02931,1.223437,1.115698,-0.052227,0.020518,-0.021051,116961
2025-02-26 08:23:26.958495,awake,10.00297,1.244985,1.06542,-0.052493,0.019985,-0.020518,117010
2025-02-26 08:23:26.958495,awake,9.993398,1.240196,1.118092,-0.05196,0.021583,-0.020251,117047
2025-02-26 08:23:26.958495,awake,9.950302,1.228225,1.086968,-0.053292,0.025847,-0.020518,117164
2025-02-26 08:23:26.958495,awake,10.01255,1.233014,1.082179,-0.053559,0.03011,-0.020784,117313
2025-02-26 08:23:26.958495,awake,10.03889,1.244985,1.079785,-0.05196,0.025847,-0.018652,117287
2025-02-26 08:23:26.958495,awake,10.01495,1.211466,1.113304,-0.053026,0.025847,-0.018386,117352
2025-02-26 08:23:26.958495,awake,10.01973,1.221043,1.096544,-0.051694,0.023982,-0.019452,117484
2025-02-26 08:23:26.958495,awake,10.00058,1.221043,1.142034,-0.05196,0.022116,-0.020251,117484
2025-02-26 08:23:26.958495,awake,10.02213,1.266533,1.122881,-0.051694,0.020784,-0.020518,117472
2025-02-26 08:23:26.958495,awake,10.02213,1.23062,1.082179,-0.052493,0.02185,-0.019718,117567
2025-02-26 08:23:26.958495,awake,10.01016,1.223437,1.103727,-0.052493,0.025847,-0.020784,117881
2025-02-26 08:23:26.958495,awake,9.979033,1.221043,1.086968,-0.053292,0.02558,-0.021051,117484
2025-02-26 08:23:26.958495,awake,9.995792,1.211466,1.098939,-0.053292,0.025314,-0.019985,118548
2025-02-26 08:23:26.958495,awake,9.981427,1.211466,1.082179,-0.052493,0.023982,-0.019985,118725
2025-02-26 08:23:26.958495,awake,10.01255,1.23062,1.096544,-0.053825,0.028245,-0.019452,118834
2025-02-26 08:23:26.958495,awake,10.09395,1.23062,1.127669,-0.053559,0.023982,-0.021051,118969
2025-02-26 08:23:26.958495,awake,10.01255,1.218649,1.115698,-0.05276,0.019185,-0.019452,118923
2025-02-26 08:23:26.958495,awake,10.00537,1.223437,1.122881,-0.053026,0.02185,-0.021317,118894
2025-02-26 08:23:26.958495,awake,9.995792,1.206678,1.103727,-0.052493,0.020251,-0.022649,118750
2025-02-26 08:23:26.958495,awake,9.998186,1.242591,1.108515,-0.053026,0.021583,-0.021317,118551
2025-02-26 08:23:26.958495,awake,10.02452,1.252167,1.058237,-0.053559,0.024781,-0.022116,118344
2025-02-26 08:23:26.958495,awake,10.01734,1.240196,1.091756,-0.05276,0.025847,-0.019452,118133
2025-02-26 08:23:26.958495,awake,9.981427,1.216254,1.144428,-0.053559,0.025314,-0.019985,117924
2025-02-26 08:23:26.958495,awake,10.00776,1.201889,1.132457,-0.05196,0.022383,-0.020251,117764
2025-02-26 08:23:26.958495,awake,10.05086,1.228225,1.106121,-0.053026,0.020784,-0.020518,117725
2025-02-26 08:23:26.958495,awake,10.04128,1.225831,1.09415,-0.052227,0.019985,-0.019985,117731
2025-02-26 08:23:26.958495,awake,9.993398,1.235408,1.108515,-0.053026,0.022383,-0.021051,117858
2025-02-26 08:23:26.958495,awake,9.986216,1.242591,1.096544,-0.053559,0.023715,-0.020784,117764
2025-02-26 08:23:26.958495,awake,9.988609,1.240196,1.09415,-0.053026,0.024248,-0.020251,118116
2025-02-26 08:23:26.958495,awake,10.00297,1.225831,1.108515,-0.052227,0.025314,-0.020251,118236
2025-02-26 08:23:26.958495,awake,10.00297,1.21386,1.127669,-0.052227,0.022916,-0.019985,118227
2025-02-26 08:23:26.958495,awake,10.02213,1.23062,1.101333,-0.053559,0.021583,-0.019452,118085
2025-02-26 08:23:26.958495,awake,10.02452,1.23062,1.074997,-0.052227,0.020784,-0.019185,117948
2025-02-26 08:23:26.958495,awake,10.02452,1.23062,1.113304,-0.053292,0.024248,-0.019985,117993
2025-02-26 08:23:26.958495,awake,10.00058,1.233014,1.115698,-0.05276,0.022649,-0.019718,118070
2025-02-26 08:23:26.958495,awake,10.00297,1.218649,1.079785,-0.053559,0.022383,-0.019985,118061
2025-02-26 08:23:26.958495,awake,10.00058,1.23062,1.142034,-0.052493,0.021583,-0.020518,118188
2025-02-26 08:23:26.958495,awake,10.01255,1.218649,1.122881,-0.05276,0.023449,-0.020251,118201
2025-02-26 08:23:26.958495,awake,10.03889,1.235408,1.132457,-0.05276,0.021583,-0.018919,118294
2025-02-26 08:23:26.958495,awake,10.00537,1.23062,1.115698,-0.05196,0.023182,-0.018386,118455
2025-02-26 08:23:26.958495,awake,9.967062,1.228225,1.130063,-0.053825,0.023449,-0.021051,118564
2025-02-26 08:23:26.958495,awake,10.00776,1.223437,1.108515,-0.053292,0.02558,-0.020784,118708
2025-02-26 08:23:26.958495,awake,10.03889,1.228225,1.115698,-0.05276,0.022649,-0.019185,118804
2025-02-26 08:23:26.958495,awake,9.979033,1.223437,1.115698,-0.053026,0.021051,-0.019452,118867
2025-02-26 08:23:26.958495,awake,9.983821,1.221043,1.127669,-0.052493,0.024515,-0.020251,118564
2025-02-26 08:23:26.958495,awake,10.13226,1.242591,1.101333,-0.052227,0.021051,-0.019185,118925
2025-02-26 08:23:26.958495,awake,10.00058,1.225831,1.108515,-0.053559,0.022649,-0.018919,118950
2025-02-26 08:23:26.958495,awake,9.964667,1.225831,1.106121,-0.053559,0.02638,-0.020784,118867
2025-02-26 08:23:26.958495,awake,10.01973,1.244985,1.11091,-0.05276,0.023182,-0.021051,118954
2025-02-26 08:23:26.958495,awake,10.02931,1.233014,1.09415,-0.051694,0.020784,-0.020251,118935
2025-02-26 08:23:26.958495,awake,9.964667,1.225831,1.122881,-0.052227,0.021583,-0.021317,118917
2025-02-26 08:23:26.958495,awake,9.995792,1.225831,1.084573,-0.051694,0.019985,-0.020518,118870
2025-02-26 08:23:26.958495,awake,10.01255,1.242591,1.067814,-0.052493,0.022383,-0.019452,118776
2025-02-26 08:23:26.958495,awake,9.995792,1.21386,1.11091,-0.05276,0.02638,-0.019452,118661
2025-02-26 08:23:26.958495,awake,10.02931,1.233014,1.120486,-0.052227,0.026646,-0.020518,118387
2025-02-26 08:23:26.958495,awake,10.02692,1.235408,1.074997,-0.05276,0.02558,-0.019985,118019
2025-02-26 08:23:26.958495,awake,10.00297,1.223437,1.074997,-0.052493,0.027979,-0.021051,117593
2025-02-26 08:23:26.958495,awake,9.995792,1.21386,1.101333,-0.053559,0.028245,-0.021051,117244
2025-02-26 08:23:26.958495,awake,10.04607,1.237802,1.103727,-0.052493,0.027979,-0.019718,116969
2025-02-26 08:23:26.958495,awake,9.993398,1.209072,1.098939,-0.05276,0.026913,-0.019452,116793
2025-02-26 08:23:26.958495,awake,10.06283,1.221043,1.106121,-0.052493,0.025047,-0.019718,116719
2025-02-26 08:23:26.958495,awake,10.0317,1.23062,1.091756,-0.052493,0.020784,-0.020784,116646
2025-02-26 08:23:26.958495,awake,9.981427,1.221043,1.098939,-0.054092,0.024248,-0.021317,116653
2025-02-26 08:23:26.958495,awake,10.05086,1.23062,1.113304,-0.052227,0.020518,-0.019718,116671
2025-02-26 08:23:26.958495,awake,10.00058,1.228225,1.089362,-0.05276,0.019718,-0.020784,116597
2025-02-26 08:23:26.958495,awake,9.991004,1.228225,1.122881,-0.054092,0.025047,-0.020251,116651
2025-02-26 08:23:26.958495,awake,9.921572,1.244985,1.09415,-0.054358,0.027712,-0.022116,116710
2025-02-26 08:23:26.958495,awake,10.05565,1.256956,1.089362,-0.053292,0.028245,-0.021317,116881
2025-02-26 08:23:26.958495,awake,10.01734,1.247379,1.089362,-0.053026,0.026113,-0.019185,116962
2025-02-26 08:23:26.958495,awake,9.988609,1.23062,1.122881,-0.053559,0.026113,-0.019985,117022
2025-02-26 08:23:26.958495,awake,9.991004,1.218649,1.137246,-0.053292,0.023182,-0.019718,116710
2025-02-26 08:23:26.958495,awake,10.00776,1.23062,1.098939,-0.05276,0.019185,-0.019985,116864
2025-02-26 08:23:26.958495,awake,10.02692,1.244985,1.082179,-0.05196,0.018919,-0.020784,116755
2025-02-26 08:23:26.958495,awake,10.01734,1.225831,1.091756,-0.051427,0.022116,-0.020518,116716
2025-02-26 08:23:26.958495,awake,9.976639,1.216254,1.120486,-0.053292,0.024515,-0.020251,116694
2025-02-26 08:23:26.958495,awake,9.998186,1.221043,1.115698,-0.053292,0.023982,-0.021317,116727
2025-02-26 08:23:26.958495,awake,9.97185,1.233014,1.098939,-0.05276,0.023449,-0.019985,116644
2025-02-26 08:23:26.958495,awake,9.998186,1.233014,1.108515,-0.053292,0.023715,-0.019185,116604
2025-02-26 08:23:26.958495,awake,10.01734,1.261744,1.09415,-0.053292,0.026913,-0.019985,116738
2025-02-26 08:23:26.958495,awake,10.01255,1.228225,1.125275,-0.053026,0.028511,-0.019718,116888
2025-02-26 08:23:26.958495,awake,10.01016,1.211466,1.125275,-0.053292,0.027179,-0.020784,116961
2025-02-26 08:23:26.958495,awake,10.04846,1.201889,1.11091,-0.052227,0.021317,-0.019452,116967
2025-02-26 08:23:26.958495,awake,10.04368,1.225831,1.11091,-0.052493,0.019185,-0.020518,116897
2025-02-26 08:23:26.958495,awake,9.988609,1.237802,1.115698,-0.052493,0.021051,-0.020518,116887
2025-02-26 08:23:26.958495,awake,9.993398,1.237802,1.067814,-0.05196,0.02185,-0.020518,116981
2025-02-26 08:23:26.958495,awake,9.983821,1.235408,1.089362,-0.05276,0.02185,-0.019985,117044
2025-02-26 08:23:26.958495,awake,9.979033,1.223437,1.070208,-0.05276,0.025314,-0.020784,117127
2025-02-26 08:23:26.958495,awake,9.991004,1.242591,1.09415,-0.052227,0.027979,-0.020518,117192
2025-02-26 08:23:26.958495,awake,10.02452,1.23062,1.108515,-0.052493,0.026913,-0.019452,117189
2025-02-26 08:23:26.958495,awake,10.01973,1.223437,1.084573,-0.052493,0.02638,-0.018919,117093
2025-02-26 08:23:26.958495,awake,10.00297,1.237802,1.113304,-0.05196,0.022916,-0.019718,116875
2025-02-26 08:23:26.958495,awake,10.02213,1.228225,1.101333,-0.052227,0.02185,-0.019185,116640
2025-02-26 08:23:26.958495,awake,10.00537,1.23062,1.077391,-0.05276,0.020784,-0.020518,116282
2025-02-26 08:23:26.958495,awake,9.962274,1.228225,1.089362,-0.052493,0.021317,-0.020251,115793
2025-02-26 08:23:26.958495,awake,10.00297,1.233014,1.113304,-0.051694,0.021317,-0.020518,115389
2025-02-26 08:23:26.958495,awake,10.01973,1.216254,1.101333,-0.053026,0.022916,-0.020518,115227
2025-02-26 08:23:26.958495,awake,10.01016,1.21386,1.098939,-0.05276,0.021051,-0.019452,115093
2025-02-26 08:23:26.958495,awake,9.988609,1.237802,1.091756,-0.052493,0.020784,-0.018119,115008
2025-02-26 08:23:26.958495,awake,10.02213,1.242591,1.082179,-0.052227,0.024515,-0.020251,115060
2025-02-26 08:23:26.958495,awake,10.06522,1.23062,1.101333,-0.052493,0.025847,-0.020518,115147
2025-02-26 08:23:26.958495,awake,10.01734,1.235408,1.108515,-0.053026,0.02558,-0.019452,115377
2025-02-26 08:23:26.958495,awake,9.976639,1.237802,1.106121,-0.052227,0.02558,-0.020518,115493
2025-02-26 08:23:26.958495,awake,10.00297,1.206678,1.101333,-0.052493,0.02185,-0.019985,115686
2025-02-26 08:23:26.958495,awake,10.03649,1.223437,1.108515,-0.05196,0.022649,-0.019985,115979
2025-02-26 08:23:26.958495,awake,10.02692,1.244985,1.101333,-0.053026,0.025314,-0.020784,116178
2025-02-26 08:23:26.958495,awake,9.991004,1.21386,1.091756,-0.053292,0.023449,-0.019985,116381
2025-02-26 08:23:26.958495,awake,9.988609,1.21386,1.106121,-0.053026,0.022383,-0.020518,116449
2025-02-26 08:23:26.958495,awake,9.995792,1.225831,1.074997,-0.05196,0.021051,-0.020251,116381
2025-02-26 08:23:26.958495,awake,10.01016,1.247379,1.079785,-0.052227,0.022916,-0.021317,116326
2025-02-26 08:23:26.958495,awake,9.998186,1.240196,1.086968,-0.05276,0.023715,-0.02185,116243
2025-02-26 08:23:26.958495,awake,9.998186,1.244985,1.079785,-0.05276,0.025047,-0.020518,116254
2025-02-26 08:23:26.958495,awake,10.00297,1.21386,1.091756,-0.05196,0.024781,-0.019985,116352
2025-02-26 08:23:26.958495,awake,10.01255,1.223437,1.118092,-0.053292,0.022116,-0.019718,116354
2025-02-26 08:23:26.958495,awake,10.00537,1.235408,1.120486,-0.052493,0.023449,-0.019452,116430
2025-02-26 08:23:26.958495,awake,10.01016,1.225831,1.122881,-0.053026,0.023715,-0.020251,116535
2025-02-26 08:23:26.958495,awake,10.01734,1.228225,1.074997,-0.05276,0.027446,-0.020251,116801
2025-02-26 08:23:26.958495,awake,9.988609,1.235408,1.120486,-0.053026,0.026646,-0.020518,117023
2025-02-26 08:23:26.958495,awake,9.991004,1.225831,1.118092,-0.053026,0.023982,-0.020784,117172
2025-02-26 08:23:26.958495,awake,9.995792,1.189918,1.118092,-0.05276,0.023715,-0.019985,117177
2025-02-26 08:23:26.958495,awake,10.01255,1.237802,1.113304,-0.05196,0.023449,-0.020784,117176
2025-02-26 08:23:26.958495,awake,9.981427,1.240196,1.09415,-0.052493,0.024248,-0.020518,117312
2025-02-26 08:23:26.958495,awake,10.01734,1.235408,1.108515,-0.053559,0.027979,-0.020251,117649
2025-02-26 08:23:26.958495,awake,10.04128,1.216254,1.098939,-0.05276,0.027446,-0.021583,117830
2025-02-26 08:23:26.958495,awake,10.03649,1.218649,1.125275,-0.053026,0.022383,-0.019452,117830
2025-02-26 08:23:26.958495,awake,9.974244,1.209072,1.101333,-0.053026,0.020518,-0.020251,117718
2025-02-26 08:23:26.958495,awake,10.0341,1.223437,1.106121,-0.052227,0.018919,-0.018919,117390
2025-02-26 08:23:26.958495,awake,10.0341,1.228225,1.113304,-0.05196,0.018386,-0.019452,116932
2025-02-26 08:23:26.958495,awake,10.02931,1.244985,1.070208,-0.05276,0.021583,-0.019718,116277
2025-02-26 08:23:26.958495,awake,10.04368,1.23062,1.11091,-0.053026,0.022116,-0.018919,115982
2025-02-26 08:23:26.958495,awake,9.988609,1.21386,1.098939,-0.051427,0.021051,-0.018919,115574
2025-02-26 08:23:26.958495,awake,9.986216,1.21386,1.108515,-0.05276,0.02185,-0.018652,115335
2025-02-26 08:23:26.958495,awake,10.04128,1.233014,1.101333,-0.05196,0.022916,-0.019985,115274
2025-02-26 08:23:26.958495,awake,10.01734,1.235408,1.101333,-0.05196,0.025314,-0.020251,115341
2025-02-26 08:23:26.958495,awake,9.998186,1.242591,1.113304,-0.052493,0.023982,-0.018919,115479
2025-02-26 08:23:26.958495,awake,9.947908,1.216254,1.096544,-0.05196,0.022649,-0.019718,115625
2025-02-26 08:23:26.958495,awake,10.00537,1.21386,1.127669,-0.05276,0.022916,-0.019452,115768
2025-02-26 08:23:26.958495,awake,10.00537,1.233014,1.091756,-0.052493,0.023182,-0.019452,115823
2025-02-26 08:23:26.958495,awake,10.01255,1.21386,1.149217,-0.051694,0.022916,-0.019718,115970
2025-02-26 08:23:26.958495,awake,9.993398,1.228225,1.113304,-0.052227,0.023182,-0.020518,116109
2025-02-26 08:23:26.958495,awake,10.01495,1.235408,1.122881,-0.05196,0.023449,-0.020784,116140
2025-02-26 08:23:26.958495,awake,10.02213,1.235408,1.125275,-0.052493,0.024515,-0.021317,116099
2025-02-26 08:23:26.958495,awake,10.0317,1.233014,1.118092,-0.05276,0.020784,-0.020784,115963
2025-02-26 08:23:26.958495,awake,9.995792,1.223437,1.086968,-0.053026,0.021317,-0.020784,115845
2025-02-26 08:23:26.958495,awake,10.04128,1.237802,1.11091,-0.053026,0.023449,-0.021051,115816
2025-02-26 08:23:26.958495,awake,10.00776,1.228225,1.108515,-0.05276,0.023715,-0.019718,115846
2025-02-26 08:23:26.958495,awake,10.01973,1.21386,1.106121,-0.053559,0.022383,-0.019985,115794
2025-02-26 08:23:26.958495,awake,10.01495,1.225831,1.082179,-0.052227,0.020784,-0.019985,115741
2025-02-26 08:23:26.958495,awake,10.04128,1.237802,1.11091,-0.05276,0.024248,-0.020518,115778
2025-02-26 08:23:26.958495,awake,10.00537,1.223437,1.108515,-0.05276,0.025847,-0.020251,115989
2025-02-26 08:23:26.958495,awake,10.00297,1.233014,1.09415,-0.053559,0.025314,-0.021051,116240
2025-02-26 08:23:26.958495,awake,10.01495,1.23062,1.096544,-0.052493,0.025047,-0.018919,116425
2025-02-26 08:23:26.958495,awake,9.998186,1.242591,1.089362,-0.053292,0.02558,-0.019985,116524
2025-02-26 08:23:26.958495,awake,10.0341,1.23062,1.09415,-0.053559,0.026113,-0.020518,116649
2025-02-26 08:23:26.958495,awake,9.998186,1.237802,1.089362,-0.052493,0.022916,-0.019185,116645
2025-02-26 08:23:26.958495,awake,10.01016,1.25935,1.091756,-0.053026,0.023982,-0.019718,116660
2025-02-26 08:23:26.958495,awake,10.01734,1.235408,1.079785,-0.053026,0.022383,-0.019718,116621
2025-02-26 08:23:26.958495,awake,10.00058,1.223437,1.096544,-0.053026,0.023715,-0.019985,116559
2025-02-26 08:23:26.958495,awake,9.993398,1.223437,1.130063,-0.053825,0.024515,-0.020251,116592
2025-02-26 08:23:26.958495,awake,10.01734,1.211466,1.108515,-0.053026,0.023982,-0.019985,116539
2025-02-26 08:23:26.958495,awake,9.993398,1.221043,1.120486,-0.052493,0.021317,-0.020251,116238
2025-02-26 08:23:26.958495,awake,10.04128,1.233014,1.108515,-0.05276,0.021583,-0.019718,115815
2025-02-26 08:23:26.958495,awake,10.01734,1.216254,1.091756,-0.05276,0.021317,-0.020784,115348
2025-02-26 08:23:26.958495,awake,10.01973,1.233014,1.11091,-0.054092,0.024781,-0.021317,114979
2025-02-26 08:23:26.958495,awake,10.00058,1.216254,1.103727,-0.053292,0.023449,-0.020251,114756
2025-02-26 08:23:26.958495,awake,10.0341,1.223437,1.091756,-0.052227,0.023715,-0.020251,114741
2025-02-26 08:23:26.958495,awake,9.998186,1.216254,1.108515,-0.053292,0.022916,-0.02185,114826
2025-02-26 08:23:26.958495,awake,10.01016,1.216254,1.118092,-0.05196,0.023182,-0.020251,114979
2025-02-26 08:23:26.958495,awake,10.01973,1.228225,1.079785,-0.053026,0.023449,-0.020518,115069
2025-02-26 08:23:26.958495,awake,10.01495,1.242591,1.11091,-0.053559,0.023982,-0.020518,115207
2025-02-26 08:23:26.958495,awake,10.01016,1.228225,1.118092,-0.053292,0.023182,-0.019185,114826
2025-02-26 08:23:26.958495,awake,10.01495,1.218649,1.125275,-0.051694,0.022916,-0.019185,115492
2025-02-26 08:23:26.958495,awake,10.02213,1.23062,1.096544,-0.051427,0.02185,-0.019718,115668
2025-02-26 08:23:26.958495,awake,10.05325,1.199495,1.101333,-0.05276,0.02185,-0.019718,115844
2025-02-26 08:23:26.958495,awake,10.02692,1.223437,1.106121,-0.05196,0.022383,-0.020518,115990
2025-02-26 08:23:26.958495,awake,9.988609,1.228225,1.091756,-0.051694,0.021051,-0.020784,115954
2025-02-26 08:23:26.958495,awake,10.01495,1.235408,1.098939,-0.05196,0.019718,-0.020251,115752
2025-02-26 08:23:26.958495,awake,9.981427,1.21386,1.084573,-0.053026,0.021583,-0.020251,115593
2025-02-26 08:23:26.958495,awake,9.959879,1.235408,1.103727,-0.053825,0.026113,-0.020518,115744
2025-02-26 08:23:26.958495,awake,10.02452,1.216254,1.103727,-0.05276,0.022916,-0.018652,115587
2025-02-26 08:23:26.958495,awake,10.01495,1.233014,1.086968,-0.052493,0.022916,-0.020518,115666
2025-02-26 08:23:26.958495,awake,9.998186,1.235408,1.106121,-0.051694,0.025047,-0.019718,115735
2025-02-26 08:23:26.958495,awake,10.01255,1.223437,1.101333,-0.053026,0.023982,-0.019985,115802
2025-02-26 08:23:26.958495,awake,10.00776,1.235408,1.106121,-0.053292,0.023449,-0.019985,115937
2025-02-26 08:23:26.958495,awake,9.998186,1.244985,1.063026,-0.053559,0.022649,-0.019452,116119
2025-02-26 08:23:26.958495,awake,10.00537,1.209072,1.106121,-0.052227,0.023182,-0.019452,116282
2025-02-26 08:23:26.958495,awake,9.983821,1.211466,1.089362,-0.051694,0.022116,-0.020518,116299
2025-02-26 08:23:26.958495,awake,10.00297,1.23062,1.096544,-0.051161,0.017853,-0.020251,115769
2025-02-26 08:23:26.958495,awake,10.00776,1.235408,1.115698,-0.051427,0.023449,-0.019452,115804
2025-02-26 08:23:26.958495,awake,10.01255,1.235408,1.084573,-0.052493,0.022383,-0.019985,115700
2025-02-26 08:23:26.958495,awake,10.01016,1.244985,1.101333,-0.051694,0.021051,-0.019452,115845
2025-02-26 08:23:26.958495,awake,9.974244,1.223437,1.084573,-0.05276,0.021317,-0.019718,116046
2025-02-26 08:23:26.958495,awake,10.02692,1.240196,1.098939,-0.05276,0.022383,-0.019452,116118
2025-02-26 08:23:26.958495,awake,9.991004,1.235408,1.106121,-0.052493,0.023182,-0.019985,115976
2025-02-26 08:23:26.958495,awake,9.981427,1.216254,1.106121,-0.053026,0.023715,-0.020784,115723
2025-02-26 08:23:26.958495,awake,10.00537,1.252167,1.098939,-0.053292,0.023715,-0.019985,115380
2025-02-26 08:23:26.958495,awake,10.00776,1.228225,1.101333,-0.053292,0.023715,-0.021583,115147
2025-02-26 08:23:26.958495,awake,10.01016,1.23062,1.089362,-0.05276,0.026113,-0.019985,115094
2025-02-26 08:23:26.958495,awake,9.991004,1.23062,1.115698,-0.053026,0.026113,-0.020251,115118
2025-02-26 08:23:26.958495,awake,9.995792,1.197101,1.115698,-0.052493,0.024781,-0.019185,115186
2025-02-26 08:23:26.958495,awake,10.00537,1.223437,1.098939,-0.052227,0.022116,-0.019985,115235
2025-02-26 08:23:26.958495,awake,10.01495,1.209072,1.120486,-0.052493,0.020518,-0.019452,115243
2025-02-26 08:23:26.958495,awake,10.00297,1.218649,1.086968,-0.053559,0.021317,-0.020251,115399
2025-02-26 08:23:26.958495,awake,10.04368,1.247379,1.098939,-0.05276,0.022649,-0.020784,115667
2025-02-26 08:23:26.958495,awake,10.00776,1.23062,1.079785,-0.052493,0.022649,-0.020251,115853
2025-02-26 08:23:26.958495,awake,9.983821,1.23062,1.089362,-0.05276,0.023449,-0.019985,115965
2025-02-26 08:23:26.958495,awake,9.962274,1.225831,1.106121,-0.05276,0.023982,-0.019718,116019
2025-02-26 08:23:26.958495,awake,10.01734,1.21386,1.098939,-0.053292,0.02558,-0.020784,115988
2025-02-26 08:23:26.958495,awake,10.04846,1.235408,1.106121,-0.052227,0.023715,-0.019718,115855
2025-02-26 08:23:26.958495,awake,10.02931,1.23062,1.118092,-0.053026,0.022116,-0.019718,115704
2025-02-26 08:23:26.958495,awake,9.967062,1.233014,1.118092,-0.052493,0.021317,-0.018386,115473
2025-02-26 08:23:26.958495,awake,9.967062,1.225831,1.089362,-0.05276,0.023449,-0.020784,115273
2025-02-26 08:23:26.958495,awake,10.00537,1.211466,1.103727,-0.05276,0.02558,-0.021317,115041
2025-02-26 08:23:26.958495,awake,10.01495,1.206678,1.089362,-0.053559,0.022916,-0.019452,114972
2025-02-26 08:23:26.958495,awake,9.995792,1.23062,1.101333,-0.05276,0.022649,-0.018386,114796
2025-02-26 08:23:26.958495,awake,9.979033,1.218649,1.096544,-0.053825,0.023182,-0.018652,114656
2025-02-26 08:23:26.958495,awake,9.97185,1.23062,1.086968,-0.054092,0.02558,-0.019718,114560
2025-02-26 08:23:26.958495,awake,10.00297,1.235408,1.106121,-0.053292,0.029311,-0.021317,114552
2025-02-26 08:23:26.958495,awake,10.07241,1.225831,1.11091,-0.05276,0.024248,-0.020784,114569
2025-02-26 08:23:26.958495,awake,10.00537,1.221043,1.079785,-0.052227,0.023715,-0.020251,114599
2025-02-26 08:23:26.958495,awake,10.00537,1.216254,1.09415,-0.05276,0.023182,-0.021583,114625
2025-02-26 08:23:26.958495,awake,10.01495,1.237802,1.09415,-0.05196,0.020784,-0.020784,114489
2025-02-26 08:23:26.958495,awake,10.00297,1.218649,1.070208,-0.05276,0.022649,-0.020518,114532
2025-02-26 08:23:26.958495,awake,9.998186,1.235408,1.079785,-0.053026,0.024248,-0.020251,114619
2025-02-26 08:23:26.958495,awake,9.998186,1.221043,1.103727,-0.052493,0.026913,-0.019185,114707
2025-02-26 08:23:26.958495,awake,9.998186,1.228225,1.101333,-0.053825,0.02558,-0.019452,114712
2025-02-26 08:23:26.958495,awake,10.02452,1.228225,1.079785,-0.053026,0.027979,-0.018652,114800
2025-02-26 08:23:26.958495,awake,10.01495,1.23062,1.098939,-0.054358,0.027712,-0.019718,114703
