Timestamp,Label,AccelX,AccelY,AccelZ,GyroX,GyroY,GyroZ,IR
2025-02-26 02:27:17.766385,sleep,9.466674,3.100491,-0.888249,-0.089798,-0.195317,-0.061819,115482
2025-02-26 02:27:17.766385,sleep,9.64145,3.071761,-0.572214,-0.082603,-0.058089,-0.072211,115747
2025-02-26 02:27:17.766385,sleep,9.591172,3.047819,-0.253785,-0.018119,0.027446,-0.10472,115575
2025-02-26 02:27:17.766385,sleep,9.583989,3.114856,-0.244209,0.099657,-0.051161,-0.145222,115434
2025-02-26 02:27:17.766385,sleep,8.942344,3.066972,-1.163582,0.134564,0.138028,-0.118043,115300
2025-02-26 02:27:17.766385,sleep,9.169792,3.22499,-1.613692,0.004796,0.028511,-0.050095,115393
2025-02-26 02:27:17.766385,sleep,9.682152,3.150769,-1.098939,-0.106851,0.196916,-0.055691,115525
2025-02-26 02:27:17.766385,sleep,9.653421,3.08852,-0.481235,-0.102588,0.327482,-0.095127,115618
2025-02-26 02:27:17.766385,sleep,9.672575,3.071761,0.009577,-0.019985,0.169204,-0.157746,115332
2025-02-26 02:27:17.766385,sleep,9.787497,3.08852,0.076614,0.104986,0.104187,-0.238217,115045
2025-02-26 02:27:17.766385,sleep,9.478644,3.086126,-0.196325,0.231023,0.261933,-0.269127,113479
2025-02-26 02:27:17.766385,sleep,8.937555,3.450045,-0.804452,0.267262,0.263531,-0.244879,112567
2025-02-26 02:27:17.766385,sleep,8.588001,3.543418,-1.089362,0.18306,0.067681,-0.161476,112825
2025-02-26 02:27:17.766385,sleep,9.095572,3.363853,-0.888249,0.118309,-0.011724,-0.085268,112984
2025-02-26 02:27:17.766385,sleep,9.454702,3.320758,-1.000776,0.053026,-0.142824,-0.072478,113087
2025-02-26 02:27:17.766385,sleep,9.667787,3.265691,-0.483629,0.031975,-0.15668,-0.112181,113070
2025-02-26 02:27:17.766385,sleep,9.481039,3.289633,-0.414197,0.09193,-0.102588,-0.159877,112732
2025-02-26 02:27:17.766385,sleep,8.841787,3.450045,-0.708684,0.107917,-0.19585,-0.161743,112734
2025-02-26 02:27:17.766385,sleep,8.860941,3.438074,-0.47884,0.140959,-0.47377,-0.109516,112863
2025-02-26 02:27:17.766385,sleep,9.215282,3.452439,-0.972046,0.156946,-0.701329,-0.092462,112625
2025-02-26 02:27:17.766385,sleep,8.99741,3.301604,-1.235408,0.122839,-0.85268,-0.081271,111818
2025-02-26 02:27:17.766385,sleep,9.038112,3.280056,-1.580173,0.123106,-0.943011,-0.05196,110718
2025-02-26 02:27:17.766385,sleep,9.148245,3.416526,-1.877054,0.038637,-0.736769,-0.03091,109868
2025-02-26 02:27:17.766385,sleep,9.078813,3.315969,-1.577779,-0.004796,-0.779136,-0.043433,108591
2025-02-26 02:27:17.766385,sleep,8.844181,3.258508,-1.541866,0.024515,-0.920894,-0.037571,106747
2025-02-26 02:27:17.766385,sleep,8.765172,3.435679,-2.145205,0.042368,-0.892649,0.002132,105676
2025-02-26 02:27:17.766385,sleep,8.765172,3.406949,-2.238579,0.009326,-0.726643,0.019452,105014
2025-02-26 02:27:17.766385,sleep,9.155427,3.514688,-2.312799,-0.010925,-0.676548,0.050095,104350
2025-02-26 02:27:17.766385,sleep,9.241618,3.428497,-2.425326,-0.009593,-0.387969,0.013323,103711
2025-02-26 02:27:17.766385,sleep,8.990228,3.392584,-2.691083,-0.029311,-0.03011,-0.014123,103130
2025-02-26 02:27:17.766385,sleep,8.815451,3.347094,-2.762909,-0.078606,0.188122,-0.006395,103604
2025-02-26 02:27:17.766385,sleep,8.973468,3.294421,-2.717419,-0.151351,0.392233,0.013323,104875
2025-02-26 02:27:17.768746,sleep,9.112331,3.284845,-1.886631,-0.142824,0.585685,-0.014123,104607
2025-02-26 02:27:17.768746,sleep,8.710106,3.37343,-1.707066,-0.098058,0.231023,-0.041568,103932
2025-02-26 02:27:17.768746,sleep,8.978256,3.337517,-2.006341,-0.06102,0.022116,-0.054358,103324
2025-02-26 02:27:17.768746,sleep,8.992621,3.363853,-2.111686,-0.044766,-0.016521,-0.065816,102944
2025-02-26 02:27:17.768746,sleep,8.882488,3.359065,-2.08535,-0.045832,0.030377,-0.067149,102859
2025-02-26 02:27:17.768746,sleep,8.913613,3.402161,-2.240973,-0.047697,0.062885,-0.057023,103274
2025-02-26 02:27:17.768746,sleep,9.210494,3.337517,-2.200271,-0.054891,0.164407,-0.072744,103689
2025-02-26 02:27:17.768746,sleep,9.196129,3.411737,-2.03986,-0.053026,0.366119,-0.112181,103957
2025-02-26 02:27:17.768746,sleep,9.196129,3.409343,-1.946486,-0.041302,0.52573,-0.142025,103777
2025-02-26 02:27:17.768746,sleep,9.289502,3.450045,-2.056619,-0.051161,0.492156,-0.189188,102550
2025-02-26 02:27:17.768746,sleep,9.406818,3.663129,-1.711854,-0.052493,0.584352,-0.268328,99858
2025-02-26 02:27:17.768746,sleep,9.421184,3.342306,-1.596933,-0.013323,0.691737,-0.336542,95904
2025-02-26 02:27:17.768746,sleep,9.062054,3.533842,-1.905785,-0.016787,0.939547,-0.33974,92333
2025-02-26 02:27:17.768746,sleep,8.671799,3.70383,-1.340753,-0.05196,1.06505,-0.305366,89173
2025-02-26 02:27:17.768746,sleep,8.135497,3.598485,-0.921768,-0.00826,0.703194,-0.207574,87015
2025-02-26 02:27:17.768746,sleep,8.525752,3.648763,-1.060631,0.009859,0.266995,-0.103654,86257
2025-02-26 02:27:17.768746,sleep,8.813056,3.655946,-1.271321,-0.014655,0.077274,-0.073544,86291
2025-02-26 02:27:17.768746,sleep,9.01417,3.718195,-1.252167,-0.053026,0.077541,-0.05196,87817
2025-02-26 02:27:17.768746,sleep,8.06846,3.670311,-0.85473,-0.054092,0.027712,0.002132,90918
2025-02-26 02:27:17.768746,sleep,8.777143,3.603274,-0.998382,-0.057822,-0.16574,0.061553,95114
2025-02-26 02:27:17.768746,sleep,9.339781,3.62961,-1.25935,-0.041302,-0.504946,0.103121,98844
2025-02-26 02:27:17.768746,sleep,9.581595,3.718195,-1.532289,-0.065017,-0.336809,0.036505,100679
2025-02-26 02:27:17.768746,sleep,8.872911,3.651158,-1.414973,-0.092729,-0.122573,0.002931,101362
2025-02-26 02:27:17.768746,sleep,9.342175,3.699042,-1.640028,-0.115645,0.00453,0.015455,101925
2025-02-26 02:27:17.768746,sleep,8.942344,3.588908,-1.386243,-0.138294,0.144689,0.011458,102641
2025-02-26 02:27:17.768746,sleep,9.138668,3.588908,-1.331176,-0.140959,0.166006,0.016254,103601
2025-02-26 02:27:17.768746,sleep,9.018958,3.641581,-1.21386,-0.126836,0.074609,0.033308,103928
2025-02-26 02:27:17.768746,sleep,9.126697,3.620033,-1.391031,-0.135096,0.013057,0.021051,104152
2025-02-26 02:27:17.768746,sleep,8.930372,3.634398,-1.192312,-0.145222,-0.061286,0.02185,104121
2025-02-26 02:27:17.768746,sleep,8.858546,3.624821,-1.13964,-0.127636,-0.184925,0.04743,104295
2025-02-26 02:27:17.768746,sleep,9.126697,3.667917,-1.290475,-0.107917,-0.205709,0.058089,104761
2025-02-26 02:27:17.768746,sleep,9.054871,3.55539,-1.25935,-0.0874,-0.108717,0.058888,105614
2025-02-26 02:27:17.768746,sleep,8.899248,3.576937,-1.326388,-0.074077,-0.118043,0.078606,106700
2025-02-26 02:27:17.768746,sleep,9.346964,3.404555,-1.529895,-0.073011,0.023449,0.083936,107950
2025-02-26 02:27:17.768746,sleep,9.392453,3.495534,-1.678335,-0.094328,0.314692,0.076741,109188
2025-02-26 02:27:17.768746,sleep,9.160215,3.58412,-1.661576,-0.145222,0.57396,0.077541,110139
2025-02-26 02:27:17.768746,sleep,9.023746,3.643975,-1.403002,-0.202245,0.67042,0.096459,106700
2025-02-26 02:27:17.768746,sleep,9.354146,3.615245,-0.952892,-0.209972,0.731972,0.090597,110953
2025-02-26 02:27:17.768746,sleep,9.109938,3.44765,-0.70629,-0.193718,0.64857,0.06475,110761
2025-02-26 02:27:17.768746,sleep,9.28232,3.323152,-0.155623,-0.137495,0.214502,0.055424,110844
2025-02-26 02:27:17.768746,sleep,9.516952,3.409343,-0.512359,-0.050628,0.10845,0.016787,110520
2025-02-26 02:27:17.768746,sleep,9.167398,3.469198,-0.85473,-0.042101,0.102322,-0.003198,110680
2025-02-26 02:27:17.768746,sleep,9.385271,3.335123,-0.811634,-0.043433,0.162542,0.027979,111463
2025-02-26 02:27:17.768746,sleep,9.442732,3.409343,-0.672771,-0.032508,0.207308,0.018919,112149
2025-02-26 02:27:17.768746,sleep,9.234436,3.596091,-0.696713,-0.019452,0.176931,-0.005862,112268
2025-02-26 02:27:17.768746,sleep,9.169792,3.521871,-0.840365,-0.035173,0.112447,-0.013323,111632
2025-02-26 02:27:17.768746,sleep,9.059659,3.533842,-0.859518,-0.061819,0.062619,0.000799,110798
2025-02-26 02:27:17.768746,sleep,9.368511,3.318364,-0.737414,-0.086867,0.069813,0.017054,110391
2025-02-26 02:27:17.768746,sleep,9.411607,3.347094,-0.560243,-0.089265,0.043167,0.009326,110180
2025-02-26 02:27:17.768746,sleep,9.421184,3.354277,-0.4956,-0.074077,-0.0866,-0.019452,109904
2025-02-26 02:27:17.768746,sleep,9.416395,3.402161,-0.536301,-0.043433,-0.107917,-0.042101,109414
2025-02-26 02:27:17.768746,sleep,9.294291,3.41892,-0.73502,-0.027712,0.007727,-0.032775,108802
2025-02-26 02:27:17.768746,sleep,9.313444,3.363853,-0.739808,-0.029577,0.054891,-0.029311,108302
2025-02-26 02:27:17.768746,sleep,9.332599,3.411737,-0.620098,-0.026913,-0.00373,-0.039703,107761
2025-02-26 02:27:17.768746,sleep,9.291897,3.428497,-0.751779,-0.023982,-0.08207,-0.054358,107229
2025-02-26 02:27:17.768746,sleep,9.129091,3.442862,-0.943315,-0.050894,-0.067681,-0.041568,106992
2025-02-26 02:27:17.768746,sleep,9.246407,3.435679,-0.905008,-0.08287,0.004263,-0.009326,107168
2025-02-26 02:27:17.768746,sleep,9.313444,3.363853,-0.617704,-0.083669,0.073544,-0.003198,107447
2025-02-26 02:27:17.768746,sleep,9.315839,3.392584,-0.665588,-0.062086,0.059688,-0.007194,107640
2025-02-26 02:27:17.768746,sleep,9.303867,3.354277,-0.804452,-0.064217,0.069813,-0.002398,108111
2025-02-26 02:27:17.768746,sleep,9.241618,3.414132,-0.804452,-0.079939,0.1311,0.015188,108605
2025-02-26 02:27:17.768746,sleep,9.239224,3.471592,-0.744597,-0.093262,0.155348,0.028245,109300
2025-02-26 02:27:17.768746,sleep,9.284714,3.457227,-0.732626,-0.106585,0.135096,0.028778,109943
2025-02-26 02:27:17.768746,sleep,9.303867,3.406949,-0.567426,-0.110315,0.077541,0.023182,110586
2025-02-26 02:27:17.768746,sleep,9.385271,3.361459,-0.397437,-0.09113,-0.104453,-0.010392,111291
2025-02-26 02:27:17.768746,sleep,9.382876,3.311181,-0.620098,-0.070346,-0.16947,-0.031975,111686
2025-02-26 02:27:17.768746,sleep,9.277532,3.337517,-0.811634,-0.06928,-0.062619,-0.016254,111946
2025-02-26 02:27:17.768746,sleep,9.32781,3.363853,-0.864307,-0.088466,0.094328,0.017054,112393
2025-02-26 02:27:17.768746,sleep,9.31105,3.375824,-0.567426,-0.091397,0.16041,0.02185,112952
2025-02-26 02:27:17.768746,sleep,9.363723,3.320758,-0.505177,-0.071412,0.071412,0.009326,113484
2025-02-26 02:27:17.768746,sleep,9.382876,3.445256,-0.648829,-0.058355,0.056757,-0.00453,113776
2025-02-26 02:27:17.768746,sleep,9.263166,3.392584,-0.682347,-0.067149,0.03917,-0.010392,114138
2025-02-26 02:27:17.768746,sleep,9.318233,3.363853,-0.715866,-0.081005,-0.029311,-0.011724,114740
2025-02-26 02:27:17.768746,sleep,9.296685,3.296816,-0.80924,-0.106585,0.001865,0.00453,115407
2025-02-26 02:27:17.768746,sleep,9.284714,3.375824,-0.68953,-0.12657,0.104453,0.030377,115868
2025-02-26 02:27:17.768746,sleep,9.435549,3.260903,-0.35913,-0.111381,0.150285,0.034107,116084
2025-02-26 02:27:17.768746,sleep,9.466674,3.210624,-0.268151,-0.065017,0.054891,0.001599,116186
2025-02-26 02:27:17.768746,sleep,9.375694,3.292027,-0.531513,-0.03917,0.023182,-0.018386,116258
2025-02-26 02:27:17.768746,sleep,9.28232,3.476381,-0.679953,-0.038371,0.118043,-0.014123,116738
2025-02-26 02:27:17.768746,sleep,9.370906,3.387795,-0.474052,-0.045565,0.017853,-0.031709,117368
2025-02-26 02:27:17.768746,sleep,9.43076,3.359065,-0.500388,-0.03544,-0.030643,-0.060487,117571
2025-02-26 02:27:17.768746,sleep,9.229648,3.411737,-0.708684,-0.041035,-0.006928,-0.04743,117702
2025-02-26 02:27:17.768746,sleep,9.258378,3.416526,-0.703895,-0.059421,0.039703,-0.011458,118120
2025-02-26 02:27:17.768746,sleep,9.368511,3.311181,-0.68953,-0.086334,0.072478,-0.001865,118648
2025-02-26 02:27:17.768746,sleep,9.337387,3.308787,-0.56982,-0.100989,0.092729,0.009326,119235
2025-02-26 02:27:17.768746,sleep,9.368511,3.258508,-0.349553,-0.096726,0.136695,0.014655,119858
2025-02-26 02:27:17.768746,sleep,9.65821,3.1795,-0.131681,-0.038371,0.142557,-0.003198,120395
2025-02-26 02:27:17.768746,sleep,9.588778,3.292027,-0.215478,0.025047,0.03091,-0.086067,120598
2025-02-26 02:27:17.768746,sleep,9.339781,3.39019,-0.574608,0.041568,-0.017054,-0.131899,120647
2025-02-26 02:27:17.768746,sleep,8.973468,3.521871,-0.92895,0.00373,0.014655,-0.079672,120962
2025-02-26 02:27:17.768746,sleep,9.040505,3.452439,-0.873884,-0.070879,0.019718,-0.02185,120868
2025-02-26 02:27:17.768746,sleep,9.184157,3.457227,-0.775721,-0.122573,0.053026,0.035706,120415
2025-02-26 02:27:17.768746,sleep,9.459491,3.29921,-0.37589,-0.13856,0.056757,0.045832,119872
2025-02-26 02:27:17.768746,sleep,9.526528,3.292027,-0.31364,-0.114046,0.034107,0.00373,119105
2025-02-26 02:27:17.768746,sleep,9.31105,3.313575,-0.347159,-0.086334,0.024781,-0.01359,118008
2025-02-26 02:27:17.768746,sleep,9.354146,3.339911,-0.483629,-0.079672,0.040502,-0.00373,116589
2025-02-26 02:27:17.768746,sleep,9.32781,3.356671,-0.536301,-0.088732,0.045299,0.003464,115324
2025-02-26 02:27:17.768746,sleep,9.289502,3.342306,-0.52433,-0.103387,0.0437,0.016787,114647
2025-02-26 02:27:17.768746,sleep,9.210494,3.356671,-0.639252,-0.121507,0.047164,0.029844,114509
2025-02-26 02:27:17.768746,sleep,9.23683,3.356671,-0.610521,-0.152417,0.053292,0.053825,114174
2025-02-26 02:27:17.768746,sleep,9.557653,3.301604,-0.548272,-0.168671,0.031975,0.058355,112824
2025-02-26 02:27:17.768746,sleep,9.490616,3.25372,-0.301669,-0.158812,0.017853,0.020251,111107
2025-02-26 02:27:17.768746,sleep,9.375694,3.284845,-0.361524,-0.142291,-0.007461,0.006928,110191
2025-02-26 02:27:17.768746,sleep,9.461885,3.215413,-0.318429,-0.120441,0.017054,0.011724,110068
2025-02-26 02:27:17.768746,sleep,9.368511,3.177106,-0.260968,-0.092995,-0.010925,-0.015455,110101
2025-02-26 02:27:17.768746,sleep,9.3733,3.318364,-0.514753,-0.078873,-0.017587,-0.023982,110940
2025-02-26 02:27:17.768746,sleep,9.26556,3.394978,-0.768539,-0.109783,0.031975,0.013323,111905
2025-02-26 02:27:17.768746,sleep,9.349358,3.248932,-0.366313,-0.1311,0.014123,0.015188,111466
2025-02-26 02:27:17.768746,sleep,9.442732,3.210624,-0.282516,-0.104187,-0.027179,0.018119,110024
2025-02-26 02:27:17.768746,sleep,9.461885,3.217807,-0.426168,-0.086067,-0.002665,0.009326,109068
2025-02-26 02:27:17.768746,sleep,9.385271,3.234566,-0.399832,-0.081271,0.023715,0.00373,109133
2025-02-26 02:27:17.768746,sleep,9.425972,3.263297,-0.493206,-0.087933,0.057556,0.022916,110863
2025-02-26 02:27:17.768746,sleep,9.5385,3.251326,-0.490811,-0.091397,0.103654,0.019185,113688
2025-02-26 02:27:17.768746,sleep,9.277532,3.251326,-0.418985,-0.101789,0.142824,0.022383,115418
2025-02-26 02:27:17.768746,sleep,9.050082,3.263297,-0.339977,-0.107917,0.09113,0.062352,116369
2025-02-26 02:27:17.768746,sleep,9.753978,3.090914,0.102951,-0.083136,0.087666,0.05276,116846
2025-02-26 02:27:17.768746,sleep,9.864111,2.999935,0.390255,0.016254,-0.003464,-0.042634,116850
2025-02-26 02:27:17.768746,sleep,9.481039,3.191471,-0.081403,0.090064,-0.106585,-0.130833,116009
2025-02-26 02:27:17.768746,sleep,9.291897,3.354277,-0.756568,0.075675,-0.105253,-0.123905,114898
2025-02-26 02:27:17.768746,sleep,9.244013,3.3447,-0.866701,0.013323,-0.013856,-0.06555,114261
2025-02-26 02:27:17.768746,sleep,9.524135,3.210624,-0.426168,-0.011191,0.009326,-0.062086,113844
2025-02-26 02:27:17.768746,sleep,9.318233,3.265691,-0.469264,0.013057,-0.026913,-0.088998,113443
2025-02-26 02:27:17.768746,sleep,9.129091,3.275268,-0.653617,-0.010925,0.023182,-0.049296,113555
2025-02-26 02:27:17.768746,sleep,9.466674,3.234566,-0.296881,-0.003464,0.054625,-0.024515,114001
2025-02-26 02:27:17.768746,sleep,9.627085,3.306392,-0.272939,0.020518,0.044499,-0.050628,114144
2025-02-26 02:27:17.768746,sleep,9.452309,3.256114,-0.304064,0.039969,0.018386,-0.081538,113302
2025-02-26 02:27:17.768746,sleep,9.440337,3.272874,-0.280122,0.056224,-0.088199,-0.119642,111952
2025-02-26 02:27:17.768746,sleep,9.421184,3.277662,-0.397437,0.084202,-0.181194,-0.139093,110753
2025-02-26 02:27:17.768746,sleep,9.244013,3.337517,-0.804452,0.074876,-0.159078,-0.13856,109610
2025-02-26 02:27:17.768746,sleep,9.057265,3.37343,-0.981623,0.01279,-0.018119,-0.076208,108932
2025-02-26 02:27:17.768746,sleep,9.222465,3.294421,-0.577003,-0.02185,0.066616,-0.018919,108931
2025-02-26 02:27:17.768746,sleep,9.423578,3.330335,-0.447716,-0.015455,0.032242,-0.036239,108945
2025-02-26 02:27:17.768746,sleep,9.313444,3.323152,-0.588974,-0.012257,0.030643,-0.036505,109270
2025-02-26 02:27:17.768746,sleep,9.301474,3.256114,-0.538695,-0.007994,0.06102,-0.018652,110163
2025-02-26 02:27:17.768746,sleep,9.471462,3.265691,-0.557849,0.014922,0.106052,-0.01732,111711
2025-02-26 02:27:17.768746,sleep,9.516952,3.251326,-0.457293,0.02558,0.173201,-0.040502,112989
2025-02-26 02:27:17.768746,sleep,9.399636,3.313575,-0.476446,0.053559,0.188655,-0.055424,114088
2025-02-26 02:27:17.768746,sleep,9.284714,3.471592,-0.718261,0.047164,0.137761,-0.071145,110163
2025-02-26 02:27:17.768746,sleep,9.066842,3.483563,-0.876278,-0.006395,0.03011,-0.060221,116973
2025-02-26 02:27:17.768746,sleep,9.179369,3.313575,-0.521936,-0.052227,0.031709,-0.019452,118325
2025-02-26 02:27:17.768746,sleep,9.23683,3.378219,-0.586579,-0.058089,0.053825,0.007461,119217
2025-02-26 02:27:17.768746,sleep,9.291897,3.421314,-0.723049,-0.08207,0.080205,0.033041,119725
2025-02-26 02:27:17.768746,sleep,9.452309,3.315969,-0.42138,-0.104986,0.076475,0.029844,119690
2025-02-26 02:27:17.768746,sleep,9.466674,3.29921,-0.28491,-0.08287,0,-0.016787,119251
2025-02-26 02:27:17.768746,sleep,9.531317,3.323152,-0.347159,-0.064217,-0.03011,-0.033308,118579
2025-02-26 02:27:17.768746,sleep,9.636662,3.339911,-0.454898,-0.053026,-0.035972,-0.059155,117745
2025-02-26 02:27:17.768746,sleep,9.313444,3.318364,-0.270545,-0.028511,-0.085801,-0.102322,116708
2025-02-26 02:27:17.768746,sleep,9.239224,3.318364,-0.45011,0.004796,-0.160943,-0.111115,115873
2025-02-26 02:27:17.768746,sleep,9.205706,3.339911,-0.78051,-0.005063,-0.045299,-0.083936,115243
2025-02-26 02:27:17.768746,sleep,9.121908,3.421314,-0.833182,-0.043433,0.03464,-0.031975,114994
2025-02-26 02:27:17.768746,sleep,9.411607,3.356671,-0.557849,-0.066349,0.033308,-0.016787,115047
2025-02-26 02:27:17.768746,sleep,9.593566,3.349488,-0.471658,-0.050095,0.00453,-0.059954,115362
2025-02-26 02:27:17.768746,sleep,9.234436,3.361459,-0.584185,-0.043966,0.008527,-0.076475,115497
2025-02-26 02:27:17.768746,sleep,9.105149,3.41892,-0.658405,-0.055691,0.021317,-0.0437,115635
2025-02-26 02:27:17.768746,sleep,9.40203,3.445256,-0.682347,-0.06555,0.019452,-0.029577,115839
2025-02-26 02:27:17.768746,sleep,9.260772,3.442862,-0.699107,-0.077807,-0.006395,-0.045565,115998
2025-02-26 02:27:17.768746,sleep,9.155427,3.423708,-0.663194,-0.103654,0,-0.037305,116215
2025-02-26 02:27:17.768746,sleep,9.184157,3.385401,-0.627281,-0.108184,0.010126,-0.009859,116783
2025-02-26 02:27:17.768746,sleep,9.100361,3.349488,-0.507571,-0.112447,0.06555,0.026113,117559
2025-02-26 02:27:17.768746,sleep,9.634268,3.375824,-0.47884,-0.080472,0.047697,0.045299,118195
2025-02-26 02:27:17.768746,sleep,9.765948,3.435679,-0.588974,-0.076741,0.016787,-0.045299,118496
2025-02-26 02:27:17.768746,sleep,9.299079,3.39019,-0.632069,-0.09113,-0.01279,-0.096726,118299
2025-02-26 02:27:17.768746,sleep,9.006987,3.397372,-0.574608,-0.092729,0.003198,-0.065017,118115
2025-02-26 02:27:17.768746,sleep,8.956709,3.37343,-0.488417,-0.085268,0.025847,0.000533,118069
2025-02-26 02:27:17.768746,sleep,9.308656,3.375824,-0.445322,-0.068481,0.033841,0.040769,118255
2025-02-26 02:27:17.768746,sleep,9.679757,3.361459,-0.457293,-0.044499,0.02558,0.007461,118462
2025-02-26 02:27:17.768746,sleep,9.461885,3.37343,-0.581791,-0.03091,0.011724,-0.04743,118354
2025-02-26 02:27:17.768746,sleep,9.196129,3.428497,-0.588974,-0.03464,0.007994,-0.047697,118066
2025-02-26 02:27:17.768746,sleep,9.337387,3.402161,-0.59855,-0.039703,0.017054,-0.024515,117662
2025-02-26 02:27:17.768746,sleep,9.32781,3.423708,-0.624887,-0.043966,0.00826,-0.034374,118462
2025-02-26 02:27:17.768746,sleep,9.239224,3.392584,-0.512359,-0.040236,-0.004263,-0.035972,116926
2025-02-26 02:27:17.768746,sleep,9.308656,3.363853,-0.409408,-0.011991,-0.018119,-0.029311,116566
2025-02-26 02:27:17.768746,sleep,9.411607,3.416526,-0.59855,-0.000799,-0.041568,-0.041835,116301
2025-02-26 02:27:17.768746,sleep,9.349358,3.454833,-0.656011,-0.006129,-0.047164,-0.053026,116111
2025-02-26 02:27:17.768746,sleep,9.318233,3.416526,-0.646434,-0.007727,-0.029044,-0.059954,115933
2025-02-26 02:27:17.768746,sleep,9.19134,3.411737,-0.723049,-0.00826,-0.01732,-0.039969,115891
2025-02-26 02:27:17.768746,sleep,9.217676,3.368642,-0.588974,-0.007727,0.034107,-0.018386,116078
2025-02-26 02:27:17.768746,sleep,9.44752,3.495534,-0.909797,-0.021317,0.031709,-0.033308,116310
2025-02-26 02:27:17.768746,sleep,9.057265,3.454833,-0.742203,-0.065816,0.033041,-0.03464,116666
2025-02-26 02:27:17.768746,sleep,9.232041,3.428497,-0.679953,-0.070879,0.033841,0.006129,117225
2025-02-26 02:27:17.768746,sleep,9.461885,3.438074,-0.665588,-0.078873,0.047963,-0.002398,117793
2025-02-26 02:27:17.768746,sleep,9.442732,3.397372,-0.454898,-0.063685,0.031975,-0.036772,118177
2025-02-26 02:27:17.768746,sleep,9.303867,3.406949,-0.624887,-0.040236,0.002665,-0.051427,118275
2025-02-26 02:27:17.768746,sleep,9.16261,3.457227,-0.682347,-0.051161,0.008527,-0.034374,118297
2025-02-26 02:27:17.768746,sleep,9.220071,3.445256,-0.703895,-0.058622,0.005329,-0.008793,118203
2025-02-26 02:27:17.768746,sleep,9.308656,3.46441,-0.723049,-0.070346,0.006129,-0.007461,117858
2025-02-26 02:27:17.768746,sleep,9.251195,3.459621,-0.653617,-0.073544,-0.006662,-0.010392,117370
2025-02-26 02:27:17.768746,sleep,9.244013,3.452439,-0.577003,-0.060487,-0.066616,-0.002132,116797
2025-02-26 02:27:17.768746,sleep,9.334992,3.44765,-0.617704,-0.048496,-0.136962,-0.016787,116387
2025-02-26 02:27:17.768746,sleep,9.483433,3.383007,-0.746991,-0.03544,-0.188389,-0.033841,116135
2025-02-26 02:27:17.768746,sleep,9.258378,3.414132,-0.632069,-0.018919,-0.188922,-0.029577,115874
2025-02-26 02:27:17.768746,sleep,9.320627,3.426103,-0.787692,-0.005596,-0.200913,-0.031709,115721
2025-02-26 02:27:17.768746,sleep,9.181764,3.406949,-0.914585,-0.005329,-0.201179,-0.033308,115713
2025-02-26 02:27:17.768746,sleep,9.212888,3.392584,-1.036689,-0.022916,-0.136962,-0.006928,115822
2025-02-26 02:27:17.768746,sleep,9.404425,3.387795,-1.022324,-0.048496,-0.037305,0.003997,115972
2025-02-26 02:27:17.768746,sleep,9.344569,3.394978,-0.835576,-0.054625,0.017853,-0.00373,116177
2025-02-26 02:27:17.768746,sleep,9.354146,3.406949,-0.861913,-0.044233,0.009859,-0.014655,116324
2025-02-26 02:27:17.768746,sleep,9.349358,3.426103,-0.818817,-0.025314,-0.015188,-0.035173,116441
2025-02-26 02:27:17.768746,sleep,9.299079,3.473987,-0.92895,-0.011191,-0.038904,-0.045299,116394
2025-02-26 02:27:17.768746,sleep,9.205706,3.471592,-0.967257,-0.009593,-0.051161,-0.04823,116260
2025-02-26 02:27:17.768746,sleep,9.188946,3.454833,-0.991199,-0.009593,-0.119642,-0.0429,116122
2025-02-26 02:27:17.768746,sleep,9.351752,3.397372,-0.97444,-0.00826,-0.125237,-0.046897,116019
2025-02-26 02:27:17.768746,sleep,9.296685,3.450045,-1.00317,-0.007461,-0.086334,-0.062619,115887
2025-02-26 02:27:17.768746,sleep,9.181764,3.459621,-1.053449,-0.007194,-0.125237,-0.065816,115776
2025-02-26 02:27:17.768746,sleep,9.23683,3.433285,-1.165976,-0.014389,-0.122839,-0.061819,115672
2025-02-26 02:27:17.768746,sleep,9.212888,3.438074,-1.180341,-0.02558,-0.060753,-0.054358,115573
2025-02-26 02:27:17.768746,sleep,9.186552,3.469198,-1.199495,-0.034907,-0.007994,-0.043433,115487
2025-02-26 02:27:17.768746,sleep,9.210494,3.502717,-1.154005,-0.041568,0.00373,-0.036772,115371
2025-02-26 02:27:17.768746,sleep,9.172187,3.495534,-1.149217,-0.043433,0.009593,-0.032508,115334
2025-02-26 02:27:17.768746,sleep,9.208099,3.49314,-1.149217,-0.041835,0.011991,-0.022116,115361
2025-02-26 02:27:17.768746,sleep,9.227253,3.476381,-1.154005,-0.044499,0.007461,-0.02638,115394
2025-02-26 02:27:17.768746,sleep,9.14585,3.497929,-1.177947,-0.049562,0.005596,-0.024781,115384
2025-02-26 02:27:17.768746,sleep,9.112331,3.500323,-1.218649,-0.059421,-0.009859,-0.008793,115463
2025-02-26 02:27:17.768746,sleep,9.088389,3.502717,-1.187524,-0.067149,-0.076208,-0.007194,115630
2025-02-26 02:27:17.768746,sleep,9.040505,3.485958,-1.223437,-0.074343,-0.10925,0.006395,115853
2025-02-26 02:27:17.768746,sleep,9.057265,3.481169,-1.33357,-0.096459,-0.097792,0.028511,116081
2025-02-26 02:27:17.768746,sleep,9.035717,3.462016,-1.352724,-0.124971,-0.115378,0.050095,116289
2025-02-26 02:27:17.768746,sleep,9.229648,3.473987,-1.426944,-0.155881,0.029044,0.074077,116714
2025-02-26 02:27:17.768746,sleep,9.337387,3.263297,-1.247379,-0.174533,0.215835,0.086067,117295
2025-02-26 02:27:17.768746,sleep,9.449914,3.280056,-0.873884,-0.153216,0.257136,0.069813,117917
2025-02-26 02:27:17.768746,sleep,9.502586,3.131616,-0.634463,-0.084735,0.12657,0.018386,118450
2025-02-26 02:27:17.768746,sleep,9.200917,3.258508,-0.837971,-0.015455,-0.086334,-0.011724,118981
2025-02-26 02:27:17.768746,sleep,9.052477,3.430891,-1.290475,-0.023449,0.048496,-0.012524,119758
2025-02-26 02:27:17.768746,sleep,9.380483,3.313575,-1.359907,-0.054625,0.198781,0.00826,120489
2025-02-26 02:27:17.768746,sleep,9.406818,3.241749,-1.079785,-0.063951,0.334144,0.007727,121131
2025-02-26 02:27:17.768746,sleep,9.241618,3.409343,-0.756568,-0.031975,0.328015,-0.002132,121727
2025-02-26 02:27:17.768746,sleep,8.949526,3.548207,-1.022324,-0.023449,0.166273,0.007194,122257
2025-02-26 02:27:17.768746,sleep,9.153033,3.483563,-1.369483,-0.080738,0.055957,0.029311,122609
2025-02-26 02:27:17.768746,sleep,9.361329,3.361459,-0.976834,-0.127902,0.100989,0.038637,122626
2025-02-26 02:27:17.768746,sleep,9.363723,3.351882,-0.742203,-0.114845,0.106585,0.019452,122479
2025-02-26 02:27:17.768746,sleep,9.215282,3.356671,-0.826,-0.091397,0.034107,0.00906,122244
2025-02-26 02:27:17.768746,sleep,9.26556,3.323152,-0.92895,-0.091663,0.015988,0.023982,122082
2025-02-26 02:27:17.768746,sleep,9.531317,3.241749,-0.687136,-0.073011,0.050894,0.014922,122045
2025-02-26 02:27:17.768746,sleep,9.509769,3.292027,-0.761356,-0.033574,0.02638,-0.020784,122112
2025-02-26 02:27:17.768746,sleep,9.3733,3.380613,-1.170765,-0.04743,0.009593,-0.046631,122150
2025-02-26 02:27:17.768746,sleep,9.229648,3.277662,-1.007959,-0.081005,0.040769,-0.037838,122040
2025-02-26 02:27:17.768746,sleep,9.291897,3.318364,-0.696713,-0.077807,0.069547,-0.029844,122045
2025-02-26 02:27:17.768746,sleep,9.205706,3.32794,-0.754174,-0.049296,0.024248,-0.027179,122125
2025-02-26 02:27:17.768746,sleep,9.224859,3.371036,-0.998382,-0.054625,0.017054,-0.007994,122215
2025-02-26 02:27:17.768746,sleep,9.442732,3.359065,-0.859518,-0.065283,0.031176,-0.001332,122317
2025-02-26 02:27:17.768746,sleep,9.495404,3.308787,-0.723049,-0.055424,0.005862,-0.035706,122340
2025-02-26 02:27:17.768746,sleep,9.184157,3.363853,-0.837971,-0.035173,-0.005862,-0.048496,122410
2025-02-26 02:27:17.768746,sleep,9.093178,3.375824,-1.115698,-0.044766,0.005862,0.005596,122573
2025-02-26 02:27:17.768746,sleep,9.344569,3.284845,-1.029507,-0.076741,0.058089,0.038371,122881
2025-02-26 02:27:17.768746,sleep,9.665392,3.22499,-0.768539,-0.083403,0.113247,0.006928,123216
2025-02-26 02:27:17.768746,sleep,9.433155,3.308787,-0.610521,-0.042634,0.111914,-0.036239,123462
2025-02-26 02:27:17.768746,sleep,9.334992,3.303998,-0.742203,-0.014123,0.022916,-0.055424,123617
2025-02-26 02:27:17.768746,sleep,9.129091,3.409343,-0.950498,-0.010658,0.015455,-0.0429,123631
2025-02-26 02:27:17.768746,sleep,9.270349,3.375824,-1.146823,-0.045832,-0.006395,-0.017054,123599
2025-02-26 02:27:17.768746,sleep,9.315839,3.339911,-0.905008,-0.07008,0.016787,-0.006395,123571
2025-02-26 02:27:17.768746,sleep,9.540894,3.272874,-0.658405,-0.054358,0.01359,-0.024515,123577
2025-02-26 02:27:17.768746,sleep,9.277532,3.371036,-0.806846,-0.027446,-0.022116,-0.049828,123618
2025-02-26 02:27:17.768746,sleep,9.105149,3.39019,-1.182736,-0.0437,-0.011991,-0.018652,123657
2025-02-26 02:27:17.768746,sleep,9.277532,3.301604,-0.962469,-0.085801,0.039969,0.019985,123868
2025-02-26 02:27:17.768746,sleep,9.552865,3.29921,-0.665588,-0.083936,0.07008,-0.005329,123964
2025-02-26 02:27:17.768746,sleep,9.394848,3.294421,-0.667982,-0.043433,0.014123,-0.03917,124134
2025-02-26 02:27:17.768746,sleep,9.174581,3.371036,-0.967257,-0.041035,-0.00826,-0.027712,124255
2025-02-26 02:27:17.768746,sleep,9.227253,3.359065,-1.039083,-0.066616,0.015455,-0.001865,124390
2025-02-26 02:27:17.768746,sleep,9.370906,3.315969,-0.876278,-0.084202,0.021317,0.003997,124442
2025-02-26 02:27:17.768746,sleep,9.459491,3.239355,-0.68953,-0.06928,0.007194,-0.019985,124468
2025-02-26 02:27:17.768746,sleep,9.263166,3.330335,-0.76375,-0.044766,0.005329,-0.030643,124585
2025-02-26 02:27:17.768746,sleep,9.234436,3.347094,-1.000776,-0.04743,-0.00453,-0.007994,124658
2025-02-26 02:27:17.768746,sleep,9.315839,3.308787,-0.926556,-0.070613,0.020518,0.001865,124768
2025-02-26 02:27:17.768746,sleep,9.428367,3.284845,-0.866701,-0.068747,0.039436,-0.003198,124958
2025-02-26 02:27:17.768746,sleep,9.411607,3.265691,-0.723049,-0.05649,0.03544,-0.023182,125145
2025-02-26 02:27:17.768746,sleep,9.303867,3.311181,-0.857124,-0.037571,0.015988,-0.033308,124658
2025-02-26 02:27:17.768746,sleep,9.267955,3.325546,-0.931344,-0.049029,0.017054,-0.023182,125478
2025-02-26 02:27:17.768746,sleep,9.375694,3.301604,-0.806846,-0.050628,0.019718,-0.019452,125612
