Timestamp,Label,AccelX,AccelY,AccelZ,GyroX,GyroY,GyroZ,IR
2025-02-26 02:28:46.103367,sleep,8.961497,3.136404,-3.957615,0.029577,-0.710389,0.029311,108490
2025-02-26 02:28:46.103367,sleep,8.889671,3.093309,-4.103662,-0.037305,-0.20864,0.005862,108494
2025-02-26 02:28:46.103367,sleep,8.801085,3.169923,-3.940856,-0.097792,0.181994,-0.036772,108354
2025-02-26 02:28:46.103367,sleep,8.899248,3.095703,-3.854665,-0.149752,0.389568,-0.089265,108197
2025-02-26 02:28:46.103367,sleep,8.633492,3.102885,-3.473987,-0.179063,0.388502,-0.144423,108100
2025-02-26 02:28:46.103367,sleep,8.65025,3.29921,-3.308787,-0.172401,0.281118,-0.170003,108079
2025-02-26 02:28:46.103367,sleep,8.238448,3.057395,-2.978387,-0.1303,0.273391,-0.16574,108017
2025-02-26 02:28:46.103367,sleep,8.051701,3.13401,-2.94008,-0.079139,0.202511,-0.107118,107888
2025-02-26 02:28:46.103367,sleep,8.286332,3.20823,-2.999935,-0.021051,-0.084735,-0.039703,107621
2025-02-26 02:28:46.103367,sleep,8.561666,3.244143,-3.320758,-0.020251,-0.270992,-0.047963,107213
2025-02-26 02:28:46.103367,sleep,8.626308,3.272874,-3.41892,-0.026113,-0.401559,-0.083136,106931
2025-02-26 02:28:46.103367,sleep,8.391677,3.244143,-3.531447,-0.029311,-0.454851,-0.091397,106747
2025-02-26 02:28:46.103367,sleep,8.425196,3.229778,-3.684676,-0.03917,-0.350132,-0.080472,106791
2025-02-26 02:28:46.103367,sleep,8.504205,3.246537,-3.780444,-0.063152,-0.0429,-0.069014,107160
2025-02-26 02:28:46.103367,sleep,8.212111,3.241749,-3.533842,-0.071412,0.047164,-0.044233,107423
2025-02-26 02:28:46.103367,sleep,8.307879,3.210624,-3.541024,-0.074077,-0.073277,-0.015188,107568
2025-02-26 02:28:46.103367,sleep,8.355764,3.270479,-3.70383,-0.080738,-0.220364,-0.013856,107695
2025-02-26 02:28:46.103367,sleep,8.693346,3.296816,-3.711013,-0.084735,-0.079939,-0.056757,107767
2025-02-26 02:28:46.103367,sleep,8.257602,3.296816,-3.620033,-0.078606,0.010126,-0.072211,107916
2025-02-26 02:28:46.103367,sleep,8.331821,3.265691,-3.608062,-0.077274,0.028511,-0.061819,108111
2025-02-26 02:28:46.103367,sleep,8.437167,3.354277,-3.828329,-0.092995,0.043966,-0.065283,108444
2025-02-26 02:28:46.103367,sleep,8.683769,3.325546,-3.98874,-0.13936,0.322153,-0.104453,108786
2025-02-26 02:28:46.103367,sleep,8.540117,3.205836,-3.873818,-0.187057,0.860141,-0.110848,109119
2025-02-26 02:28:46.103367,sleep,8.595184,3.428497,-3.881001,-0.245945,1.380809,-0.066349,109540
2025-02-26 02:28:46.103367,sleep,8.358158,3.351882,-3.035848,-0.268594,1.86124,-0.022916,109626
2025-02-26 02:28:46.103367,sleep,8.406042,3.361459,-2.396596,-0.23875,1.873231,0.002931,109367
2025-02-26 02:28:46.103367,sleep,8.350976,3.49314,-2.008735,-0.206242,1.463945,0.026113,108745
2025-02-26 02:28:46.103367,sleep,8.626308,3.421314,-1.735796,-0.146288,0.765547,0.042368,108141
2025-02-26 02:28:46.103367,sleep,8.772355,3.380613,-1.675941,-0.09113,0.211305,0.029044,107825
2025-02-26 02:28:46.103367,sleep,8.92319,3.315969,-1.96564,-0.051427,0.036772,0.029044,107880
2025-02-26 02:28:46.103367,sleep,8.832211,3.294421,-1.975216,-0.026646,0.025047,0.051427,107966
2025-02-26 02:28:46.103367,sleep,8.839393,3.272874,-1.956063,-0.002665,0.029311,0.081271,108092
2025-02-26 02:28:46.103367,sleep,9.107543,3.236961,-1.932121,0.021051,0.053292,0.092729,108205
2025-02-26 02:28:46.103367,sleep,9.172187,3.28245,-2.08535,0.042634,0.053559,0.065017,108060
2025-02-26 02:28:46.103367,sleep,9.155427,3.337517,-2.200271,0.035706,0.0429,0.03544,107878
2025-02-26 02:28:46.103367,sleep,9.344569,3.426103,-2.336741,0.006395,-0.063152,-0.021051,107822
2025-02-26 02:28:46.103367,sleep,8.937555,3.320758,-2.245761,-0.030643,-0.16574,-0.06475,107926
2025-02-26 02:28:46.103367,sleep,8.765172,3.229778,-2.142811,-0.030377,-0.15215,-0.029577,107983
2025-02-26 02:28:46.103367,sleep,8.961497,3.256114,-2.291251,-0.036239,-0.076741,-0.003997,108104
2025-02-26 02:28:46.103367,sleep,9.138668,3.251326,-2.212242,-0.038371,0.059155,-0.003198,108254
2025-02-26 02:28:46.103367,sleep,9.126697,3.22499,-2.173935,-0.037038,0.152417,-0.03091,108308
2025-02-26 02:28:46.103367,sleep,8.932767,3.251326,-2.087744,-0.03917,0.067415,-0.049828,108253
2025-02-26 02:28:46.103367,sleep,9.018958,3.236961,-2.035071,-0.02638,-0.078074,-0.056224,108228
2025-02-26 02:28:46.103367,sleep,9.114726,3.229778,-2.145205,-0.010392,-0.19132,-0.092729,108126
2025-02-26 02:28:46.103367,sleep,8.789114,3.292027,-2.238579,-0.009593,-0.308031,-0.10845,107911
2025-02-26 02:28:46.103367,sleep,8.482656,3.270479,-2.274492,-0.002665,-0.435666,-0.066616,107638
2025-02-26 02:28:46.103367,sleep,8.542512,3.270479,-2.561796,-0.014123,-0.435933,0.009859,107337
2025-02-26 02:28:46.103367,sleep,8.887277,3.275268,-2.647987,-0.031709,-0.125237,0.059688,107082
2025-02-26 02:28:46.103367,sleep,9.076419,3.20823,-2.382231,-0.033308,0.042634,0.050628,106715
2025-02-26 02:28:46.103367,sleep,9.181764,3.20823,-2.463634,-0.025847,0.083669,-0.008527,106291
2025-02-26 02:28:46.103367,sleep,9.035717,3.234566,-2.477999,-0.023182,0.095926,-0.05276,105801
2025-02-26 02:28:46.103367,sleep,8.839393,3.294421,-2.60968,-0.033841,0.142025,-0.058089,105414
2025-02-26 02:28:46.103367,sleep,8.549694,3.289633,-2.37026,-0.043966,0.193452,-0.027712,105163
2025-02-26 02:28:46.103367,sleep,8.633492,3.29921,-2.389413,-0.034107,0.092196,0.026646,104995
2025-02-26 02:28:46.103367,sleep,9.050082,3.239355,-2.410961,-0.032508,0.08287,0.038904,104796
2025-02-26 02:28:46.103367,sleep,9.16261,3.215413,-2.408567,-0.036772,0.176931,0.004263,104397
2025-02-26 02:28:46.103367,sleep,8.908825,3.217807,-2.298434,-0.033841,0.246211,-0.014123,103648
2025-02-26 02:28:46.103367,sleep,8.820239,3.157952,-2.284068,-0.031975,0.209173,-0.004796,103022
2025-02-26 02:28:46.103367,sleep,8.810662,3.20823,-2.305616,-0.039703,0.13936,0.007994,102556
2025-02-26 02:28:46.103367,sleep,8.863335,3.265691,-2.1883,-0.043966,0.088466,0.019452,102270
2025-02-26 02:28:46.103367,sleep,8.949526,3.191471,-2.214637,-0.031443,0.050628,0.023982,102139
2025-02-26 02:28:46.103367,sleep,8.937555,3.213019,-2.229002,-0.022383,0.039703,0.030643,101898
2025-02-26 02:28:46.103367,sleep,8.841787,3.16274,-2.23379,-0.016521,0.048496,0.047963,101565
2025-02-26 02:28:46.103367,sleep,8.817844,3.1795,-2.281674,-0.013856,0.049029,0.073277,101041
2025-02-26 02:28:46.103367,sleep,8.841787,3.148375,-2.303222,-0.018919,0.046098,0.097525,100548
2025-02-26 02:28:46.103367,sleep,9.004593,3.145981,-2.377442,-0.033041,0.053292,0.104986,100729
2025-02-26 02:28:46.103367,sleep,9.277532,3.129222,-2.348712,-0.055691,0.026646,0.072744,101299
2025-02-26 02:28:46.103367,sleep,9.227253,3.074155,-2.257732,-0.066882,0.014922,0.018119,101811
2025-02-26 02:28:46.103367,sleep,9.169792,3.064578,-2.252944,-0.067149,0.006395,-0.02185,102292
2025-02-26 02:28:46.103367,sleep,9.0429,3.05979,-2.238579,-0.059688,0.013323,-0.041835,102736
2025-02-26 02:28:46.103367,sleep,8.971074,3.064578,-2.281674,-0.055424,0.020518,-0.042101,103055
2025-02-26 02:28:46.103367,sleep,8.920795,3.107674,-2.291251,-0.055957,0.022116,-0.036505,103321
2025-02-26 02:28:46.103367,sleep,8.875306,3.098097,-2.245761,-0.055957,0.024515,-0.016254,103591
2025-02-26 02:28:46.103367,sleep,8.937555,3.071761,-2.264915,-0.054891,0.027446,0.001066,103875
2025-02-26 02:28:46.103367,sleep,9.076419,3.074155,-2.260126,-0.055691,0.026646,-0.005862,104041
2025-02-26 02:28:46.103367,sleep,9.035717,3.055001,-2.272097,-0.053559,0.022116,-0.018119,104200
2025-02-26 02:28:46.103367,sleep,9.033323,3.05979,-2.260126,-0.056224,0.018652,-0.029311,104419
2025-02-26 02:28:46.103367,sleep,9.057265,3.081338,-2.284068,-0.058355,0.007994,-0.044499,104720
2025-02-26 02:28:46.103367,sleep,8.939949,3.114856,-2.281674,-0.063685,-0.001066,-0.048763,104983
2025-02-26 02:28:46.103367,sleep,8.863335,3.098097,-2.262521,-0.067149,-0.014123,-0.038104,105267
2025-02-26 02:28:46.103367,sleep,8.858546,3.083732,-2.272097,-0.066616,0,-0.011991,105566
2025-02-26 02:28:46.103367,sleep,8.868123,3.062184,-2.312799,-0.06928,0.026913,0.010126,105780
2025-02-26 02:28:46.103367,sleep,8.954314,3.05979,-2.231396,-0.071945,0.034907,0.019718,105999
2025-02-26 02:28:46.103367,sleep,9.009381,3.040636,-2.248155,-0.068481,0.029044,0.015721,106240
2025-02-26 02:28:46.103367,sleep,9.021352,3.028665,-2.245761,-0.067681,0.031443,0.005329,106454
2025-02-26 02:28:46.103367,sleep,8.999804,3.021482,-2.224213,-0.062086,0.03091,-0.000266,105780
2025-02-26 02:28:46.103367,sleep,9.009381,3.062184,-2.269703,-0.059155,0.025847,-0.005329,106857
2025-02-26 02:28:46.103367,sleep,8.985439,3.086126,-2.296039,-0.065816,0.026913,-0.008527,107003
2025-02-26 02:28:46.103367,sleep,8.983045,3.05979,-2.23379,-0.070613,0.025047,-0.006662,107158
2025-02-26 02:28:46.103367,sleep,9.004593,3.057395,-2.25055,-0.067948,0.020251,-0.006129,107273
2025-02-26 02:28:46.103367,sleep,8.966286,3.04303,-2.25055,-0.068214,0.021583,-0.004263,107442
2025-02-26 02:28:46.103367,sleep,8.987833,3.026271,-2.229002,-0.066349,0.024248,-0.001066,107582
2025-02-26 02:28:46.103367,sleep,9.006987,3.031059,-2.281674,-0.066882,0.022383,-0.005063,107737
2025-02-26 02:28:46.103367,sleep,9.030929,3.007117,-2.281674,-0.068481,0.018386,-0.011991,107850
2025-02-26 02:28:46.103367,sleep,9.045294,3.004723,-2.245761,-0.06555,0.01732,-0.018119,107965
2025-02-26 02:28:46.103367,sleep,9.021352,3.021482,-2.231396,-0.063152,0.011991,-0.027712,108033
2025-02-26 02:28:46.103367,sleep,8.942344,3.035848,-2.23379,-0.055424,0.021051,-0.02558,108127
2025-02-26 02:28:46.103367,sleep,8.968679,3.055001,-2.229002,-0.05649,0.024515,-0.016254,108232
2025-02-26 02:28:46.103367,sleep,9.018958,3.045424,-2.274492,-0.058089,0.03091,-0.015455,108322
2025-02-26 02:28:46.103367,sleep,8.980651,3.047819,-2.252944,-0.055957,0.030643,-0.013856,108360
2025-02-26 02:28:46.103367,sleep,8.999804,3.023877,-2.214637,-0.055691,0.02638,-0.014123,108089
2025-02-26 02:28:46.103367,sleep,8.968679,3.028665,-2.252944,-0.054625,0.017587,-0.016787,107886
2025-02-26 02:28:46.103367,sleep,9.023746,3.0143,-2.243367,-0.054891,0.026913,-0.013856,107445
2025-02-26 02:28:46.103367,sleep,9.011775,3.007117,-2.231396,-0.057023,0.025847,-0.021051,106987
2025-02-26 02:28:46.103367,sleep,8.975863,3.031059,-2.231396,-0.055957,0.029844,-0.01732,106615
2025-02-26 02:28:46.103367,sleep,9.028535,3.021482,-2.257732,-0.055957,0.036505,-0.014922,106351
2025-02-26 02:28:46.103367,sleep,8.944737,3.035848,-2.293645,-0.059688,0.044499,-0.01732,106183
2025-02-26 02:28:46.103367,sleep,9.040505,3.031059,-2.190695,-0.061819,0.035706,-0.004796,106124
2025-02-26 02:28:46.103367,sleep,9.083601,3.04303,-2.212242,-0.054625,0.02185,-0.014123,106076
2025-02-26 02:28:46.103367,sleep,9.066842,3.035848,-2.252944,-0.052493,0.019185,-0.025847,106044
2025-02-26 02:28:46.103367,sleep,8.985439,3.019088,-2.238579,-0.053292,0.018652,-0.024781,105929
2025-02-26 02:28:46.103367,sleep,9.01417,3.0143,-2.25055,-0.055691,0.025314,-0.02185,105876
2025-02-26 02:28:46.103367,sleep,9.009381,3.007117,-2.243367,-0.057289,0.027446,-0.021051,105891
2025-02-26 02:28:46.103367,sleep,9.02614,3.002329,-2.219425,-0.057289,0.028511,-0.019452,105888
2025-02-26 02:28:46.103367,sleep,8.990228,3.009511,-2.236184,-0.058089,0.03544,-0.023715,105918
2025-02-26 02:28:46.103367,sleep,8.844181,3.074155,-2.293645,-0.062885,0.033308,-0.009859,105949
2025-02-26 02:28:46.103367,sleep,9.186552,3.021482,-2.255338,-0.066616,0.069813,-0.008793,106036
2025-02-26 02:28:46.103367,sleep,8.971074,3.023877,-2.169147,-0.065816,0.109783,-0.021317,105888
2025-02-26 02:28:46.103367,sleep,9.028535,3.028665,-2.190695,-0.057822,0.063951,-0.012524,106089
2025-02-26 02:28:46.103367,sleep,9.066842,3.009511,-2.183512,-0.055158,0.053026,-0.01732,106084
2025-02-26 02:28:46.103367,sleep,9.011775,2.999935,-2.217031,-0.05649,0.052493,-0.01732,106036
2025-02-26 02:28:46.103367,sleep,9.069236,3.007117,-2.238579,-0.059155,0.079939,-0.009326,106003
2025-02-26 02:28:46.103367,sleep,9.062054,2.973598,-2.221819,-0.067415,0.119375,-0.015988,105899
2025-02-26 02:28:46.103367,sleep,9.023746,3.002329,-2.116474,-0.066882,0.105519,-0.011991,105830
2025-02-26 02:28:46.103367,sleep,9.105149,3.016694,-2.133234,-0.061286,0.082337,-0.015988,105792
2025-02-26 02:28:46.103367,sleep,9.052477,3.033453,-2.097321,-0.055158,0.042634,-0.019985,105811
2025-02-26 02:28:46.103367,sleep,9.097966,3.052607,-2.135628,-0.05276,0.03011,-0.017587,105817
2025-02-26 02:28:46.103367,sleep,9.102755,3.016694,-2.13084,-0.052227,0.031443,-0.019718,105825
2025-02-26 02:28:46.103367,sleep,9.07163,3.033453,-2.157176,-0.055691,0.03091,-0.019985,105853
2025-02-26 02:28:46.103367,sleep,9.085996,3.009511,-2.15957,-0.055424,0.03544,-0.016787,105923
2025-02-26 02:28:46.103367,sleep,9.069236,3.011906,-2.123657,-0.058622,0.046897,-0.018919,106016
2025-02-26 02:28:46.103367,sleep,9.057265,2.999935,-2.092532,-0.055158,0.040236,-0.017587,106115
2025-02-26 02:28:46.103367,sleep,9.124303,3.019088,-2.183512,-0.057556,0.060221,-0.016521,106170
2025-02-26 02:28:46.103367,sleep,9.069236,3.009511,-2.070984,-0.059155,0.053292,-0.019985,106139
2025-02-26 02:28:46.103367,sleep,9.148245,3.033453,-2.135628,-0.05649,0.05196,-0.01732,106152
2025-02-26 02:28:46.103367,sleep,9.107543,3.050213,-2.109292,-0.057822,0.062352,-0.017587,106161
2025-02-26 02:28:46.103367,sleep,9.100361,3.055001,-2.092532,-0.057289,0.047697,-0.018119,106173
2025-02-26 02:28:46.103367,sleep,9.112331,3.040636,-2.080561,-0.053825,0.035972,-0.014655,106155
2025-02-26 02:28:46.103367,sleep,9.11712,3.028665,-2.082955,-0.053559,0.027179,-0.017054,106209
2025-02-26 02:28:46.103367,sleep,9.107543,2.978387,-2.092532,-0.062619,0.036239,-0.010658,106169
2025-02-26 02:28:46.103367,sleep,9.184157,2.983175,-2.030283,-0.05276,0.032242,-0.014922,106219
2025-02-26 02:28:46.103367,sleep,9.07163,2.992752,-2.099715,-0.054358,0.024781,-0.02558,106307
2025-02-26 02:28:46.103367,sleep,9.066842,2.995146,-2.097321,-0.054891,0.029044,-0.019452,106358
2025-02-26 02:28:46.103367,sleep,9.121908,3.011906,-2.082955,-0.055158,0.027712,-0.017054,106169
2025-02-26 02:28:46.103367,sleep,9.076419,3.035848,-2.097321,-0.055158,0.022916,-0.021317,106415
2025-02-26 02:28:46.103367,sleep,9.085996,3.055001,-2.106898,-0.055957,0.023715,-0.013057,106406
2025-02-26 02:28:46.103367,sleep,9.02614,3.062184,-2.1883,-0.069547,0.024515,-0.005063,106448
2025-02-26 02:28:46.103367,sleep,9.121908,3.004723,-2.06859,-0.075142,0.074343,-0.007461,106351
2025-02-26 02:28:46.103367,sleep,9.23683,2.980781,-2.061408,-0.068747,0.100723,-0.016521,106385
2025-02-26 02:28:46.103367,sleep,9.107543,2.983175,-2.047042,-0.065816,0.069014,-0.027179,106414
2025-02-26 02:28:46.103367,sleep,9.097966,2.980781,-2.008735,-0.059688,0.041035,-0.023715,106415
2025-02-26 02:28:46.103367,sleep,9.200917,2.995146,-2.094927,-0.060753,0.049562,-0.030377,106561
2025-02-26 02:28:46.103367,sleep,9.062054,3.0143,-2.025495,-0.060753,0.036772,-0.032775,106642
2025-02-26 02:28:46.103367,sleep,9.100361,3.011906,-2.025495,-0.058622,0.033574,-0.022916,106788
2025-02-26 02:28:46.103367,sleep,9.119514,3.040636,-2.051831,-0.055691,0.033041,-0.015721,106846
2025-02-26 02:28:46.103367,sleep,9.126697,3.035848,-2.027889,-0.055691,0.03091,-0.016254,106838
2025-02-26 02:28:46.103367,sleep,9.172187,3.050213,-2.08535,-0.056757,0.040502,-0.013057,106711
2025-02-26 02:28:46.103367,sleep,9.200917,3.028665,-2.073379,-0.06555,0.066616,-0.018919,106555
2025-02-26 02:28:46.103367,sleep,9.176975,3.011906,-1.984793,-0.061286,0.051161,-0.030643,106316
2025-02-26 02:28:46.103367,sleep,9.155427,3.035848,-1.977611,-0.052227,0.019718,-0.033308,105953
2025-02-26 02:28:46.103367,sleep,9.064447,3.009511,-2.03986,-0.052227,0.017587,-0.031709,105427
2025-02-26 02:28:46.103367,sleep,9.052477,3.023877,-2.056619,-0.055691,0.029311,-0.016521,104917
2025-02-26 02:28:46.103367,sleep,9.198523,3.021482,-2.015918,-0.055691,0.027712,-0.016254,104470
2025-02-26 02:28:46.103367,sleep,9.14585,3.031059,-2.020706,-0.054092,0.019718,-0.03091,104145
2025-02-26 02:28:46.103367,sleep,9.126697,3.057395,-2.018312,-0.05196,0.019985,-0.03011,103950
2025-02-26 02:28:46.103367,sleep,9.186552,3.019088,-2.018312,-0.051694,0.016787,-0.034907,103758
2025-02-26 02:28:46.103367,sleep,9.121908,3.031059,-2.059013,-0.052227,0.014389,-0.040769,104470
2025-02-26 02:28:46.103367,sleep,9.059659,3.047819,-2.037466,-0.053026,0.017054,-0.029844,103683
2025-02-26 02:28:46.103367,sleep,9.090784,3.026271,-2.030283,-0.053292,0.022116,-0.021051,103653
2025-02-26 02:28:46.103367,sleep,9.13388,3.035848,-2.03986,-0.054625,0.02638,-0.015455,103573
2025-02-26 02:28:46.103367,sleep,9.203311,3.040636,-2.025495,-0.054625,0.028245,-0.020784,103428
2025-02-26 02:28:46.103367,sleep,9.129091,3.050213,-1.980005,-0.053026,0.022116,-0.031443,103381
2025-02-26 02:28:46.103367,sleep,9.093178,3.05979,-2.051831,-0.049828,0.019718,-0.027712,103304
2025-02-26 02:28:46.103367,sleep,9.121908,3.066972,-2.049437,-0.053026,0.020518,-0.024515,103253
2025-02-26 02:28:46.103367,sleep,9.109938,3.057395,-1.989582,-0.053026,0.024515,-0.022916,103276
2025-02-26 02:28:46.103367,sleep,9.141062,3.045424,-2.011129,-0.051694,0.021317,-0.016521,103305
2025-02-26 02:28:46.103367,sleep,9.13388,3.057395,-2.0231,-0.051427,0.019718,-0.018919,103310
2025-02-26 02:28:46.103367,sleep,9.141062,3.04303,-2.035071,-0.052227,0.024515,-0.016254,103304
2025-02-26 02:28:46.103367,sleep,9.155427,3.038242,-2.018312,-0.053026,0.02638,-0.015455,103281
2025-02-26 02:28:46.103367,sleep,9.121908,3.031059,-1.991976,-0.055424,0.025047,-0.021317,103234
2025-02-26 02:28:46.103367,sleep,9.100361,3.045424,-2.011129,-0.053825,0.027979,-0.01732,103226
2025-02-26 02:28:46.103367,sleep,9.160215,3.040636,-2.032677,-0.053559,0.024515,-0.016787,103200
2025-02-26 02:28:46.103367,sleep,9.141062,3.045424,-1.991976,-0.052227,0.020251,-0.019718,103165
2025-02-26 02:28:46.103367,sleep,9.160215,3.050213,-2.047042,-0.051427,0.020784,-0.018919,103165
2025-02-26 02:28:46.103367,sleep,9.176975,3.055001,-2.003947,-0.051161,0.020251,-0.022383,103221
2025-02-26 02:28:46.103367,sleep,9.114726,3.040636,-1.999158,-0.050361,0.019452,-0.025314,103269
2025-02-26 02:28:46.103367,sleep,9.119514,3.047819,-2.044648,-0.05276,0.020784,-0.019452,103374
2025-02-26 02:28:46.103367,sleep,9.165004,3.033453,-2.030283,-0.053825,0.022383,-0.025314,103482
2025-02-26 02:28:46.103367,sleep,9.081207,3.026271,-2.013524,-0.051694,0.021583,-0.025847,103573
2025-02-26 02:28:46.103367,sleep,9.124303,3.057395,-2.018312,-0.051427,0.018652,-0.020518,103269
2025-02-26 02:28:46.103367,sleep,9.114726,3.045424,-2.018312,-0.053026,0.020518,-0.020518,103658
2025-02-26 02:28:46.103367,sleep,9.138668,3.071761,-2.032677,-0.051694,0.023449,-0.015188,103707
2025-02-26 02:28:46.103367,sleep,9.165004,3.057395,-2.03986,-0.053026,0.023715,-0.017587,103768
2025-02-26 02:28:46.103367,sleep,9.100361,3.038242,-1.984793,-0.052493,0.024248,-0.023182,103840
2025-02-26 02:28:46.103367,sleep,9.138668,3.031059,-2.006341,-0.051427,0.023182,-0.017587,103894
2025-02-26 02:28:46.103367,sleep,9.167398,3.026271,-2.025495,-0.05196,0.020518,-0.02185,103884
2025-02-26 02:28:46.103367,sleep,9.095572,3.023877,-2.054225,-0.052227,0.023449,-0.021583,103863
2025-02-26 02:28:46.103367,sleep,9.11712,3.023877,-2.044648,-0.05276,0.027712,-0.013856,103783
2025-02-26 02:28:46.103367,sleep,9.14585,3.035848,-2.015918,-0.052227,0.026913,-0.016787,103764
2025-02-26 02:28:46.103367,sleep,9.102755,3.038242,-2.03986,-0.051427,0.025314,-0.018119,103795
2025-02-26 02:28:46.103367,sleep,9.138668,3.031059,-2.035071,-0.054092,0.025314,-0.018919,103697
2025-02-26 02:28:46.103367,sleep,9.124303,3.026271,-2.020706,-0.052493,0.023182,-0.022383,103729
2025-02-26 02:28:46.103367,sleep,9.097966,3.028665,-2.03986,-0.052227,0.024781,-0.014389,103748
2025-02-26 02:28:46.103367,sleep,9.150639,3.026271,-2.003947,-0.05196,0.023715,-0.018386,103711
2025-02-26 02:28:46.103367,sleep,9.124303,3.002329,-2.035071,-0.050628,0.02185,-0.023715,103703
2025-02-26 02:28:46.103367,sleep,9.085996,3.007117,-2.008735,-0.049562,0.023715,-0.02185,103624
2025-02-26 02:28:46.103367,sleep,9.095572,3.011906,-2.042254,-0.052227,0.026913,-0.020784,103526
2025-02-26 02:28:46.103367,sleep,9.107543,3.023877,-1.984793,-0.05276,0.029577,-0.016787,103390
2025-02-26 02:28:46.103367,sleep,9.157822,3.031059,-2.003947,-0.053026,0.034907,-0.018119,103314
2025-02-26 02:28:46.103367,sleep,9.13388,3.011906,-1.996764,-0.050894,0.023182,-0.026113,103192
2025-02-26 02:28:46.103367,sleep,9.119514,3.031059,-2.03986,-0.046897,0.019452,-0.027446,103288
2025-02-26 02:28:46.103367,sleep,9.093178,3.04303,-2.073379,-0.049828,0.020251,-0.026113,103356
2025-02-26 02:28:46.103367,sleep,9.138668,3.028665,-2.030283,-0.054891,0.027179,-0.025314,103373
2025-02-26 02:28:46.103367,sleep,9.11712,3.016694,-2.001553,-0.054625,0.022383,-0.028778,103316
2025-02-26 02:28:46.103367,sleep,9.057265,2.975993,-2.006341,-0.05196,0.019452,-0.029311,103015
2025-02-26 02:28:46.103367,sleep,9.074024,3.004723,-2.03986,-0.052227,0.022916,-0.020784,102562
2025-02-26 02:28:46.103367,sleep,9.11712,3.019088,-2.001553,-0.056757,0.02558,-0.018386,102028
2025-02-26 02:28:46.103367,sleep,9.129091,3.004723,-2.001553,-0.055957,0.024248,-0.023982,101745
2025-02-26 02:28:46.103367,sleep,9.121908,3.021482,-2.011129,-0.053292,0.021051,-0.026646,101627
2025-02-26 02:28:46.103367,sleep,9.100361,2.99754,-2.020706,-0.053559,0.020518,-0.027712,101545
2025-02-26 02:28:46.103367,sleep,9.062054,3.007117,-2.008735,-0.051161,0.020518,-0.026646,101543
2025-02-26 02:28:46.103367,sleep,9.078813,3.019088,-2.027889,-0.053292,0.027179,-0.016521,101481
2025-02-26 02:28:46.103367,sleep,9.107543,2.983175,-2.037466,-0.056224,0.027179,-0.016521,101460
2025-02-26 02:28:46.103367,sleep,9.121908,2.985569,-2.020706,-0.054891,0.02558,-0.018119,101409
2025-02-26 02:28:46.103367,sleep,9.141062,2.990358,-2.035071,-0.055158,0.026113,-0.020251,101508
2025-02-26 02:28:46.103367,sleep,9.112331,2.990358,-2.013524,-0.054891,0.020784,-0.02638,101611
2025-02-26 02:28:46.103367,sleep,9.069236,3.007117,-2.044648,-0.05276,0.020784,-0.022383,101699
2025-02-26 02:28:46.103367,sleep,9.129091,3.016694,-2.006341,-0.054092,0.021317,-0.023449,101806
2025-02-26 02:28:46.103367,sleep,9.047688,3.031059,-2.008735,-0.054358,0.021317,-0.021583,101856
2025-02-26 02:28:46.103367,sleep,9.062054,3.023877,-2.047042,-0.056224,0.027712,-0.011191,101937
2025-02-26 02:28:46.103367,sleep,9.131485,3.035848,-2.061408,-0.057023,0.029311,-0.011191,102024
2025-02-26 02:28:46.103367,sleep,9.13388,2.992752,-2.008735,-0.066882,0.038371,-0.007727,102073
2025-02-26 02:28:46.103367,sleep,9.167398,3.004723,-1.999158,-0.059688,0.05649,-0.011191,102143
2025-02-26 02:28:46.103367,sleep,9.07163,2.992752,-1.987187,-0.062352,0.051694,-0.016787,102171
2025-02-26 02:28:46.103367,sleep,9.097966,2.973598,-1.970428,-0.065017,0.04823,-0.006928,102154
2025-02-26 02:28:46.103367,sleep,9.186552,3.002329,-1.936909,-0.060753,0.047697,-0.01359,102114
2025-02-26 02:28:46.103367,sleep,9.136273,3.011906,-1.951274,-0.056757,0.027712,-0.023982,102096
2025-02-26 02:28:46.103367,sleep,9.097966,3.023877,-2.003947,-0.054358,0.027712,-0.018386,102136
2025-02-26 02:28:46.103367,sleep,9.155427,3.009511,-1.989582,-0.057289,0.031975,-0.020784,102221
2025-02-26 02:28:46.103367,sleep,9.095572,2.995146,-1.958457,-0.058089,0.039969,-0.019452,102214
2025-02-26 02:28:46.103367,sleep,9.11712,2.973598,-1.946486,-0.056757,0.040769,-0.018652,102327
2025-02-26 02:28:46.103367,sleep,9.090784,2.975993,-1.956063,-0.055957,0.028511,-0.022116,102388
2025-02-26 02:28:46.103367,sleep,9.088389,2.990358,-1.951274,-0.055424,0.028511,-0.020518,102460
2025-02-26 02:28:46.103367,sleep,9.100361,3.007117,-2.011129,-0.057023,0.030643,-0.018386,102600
2025-02-26 02:28:46.103367,sleep,9.141062,2.96881,-1.96564,-0.067149,0.056757,-0.01279,102625
2025-02-26 02:28:46.103367,sleep,9.141062,2.992752,-1.929727,-0.063685,0.057023,-0.013856,102388
2025-02-26 02:28:46.103367,sleep,9.121908,3.002329,-1.893813,-0.059688,0.044233,-0.018119,102620
2025-02-26 02:28:46.103367,sleep,9.160215,2.999935,-1.908179,-0.053825,0.024781,-0.025047,102708
2025-02-26 02:28:46.103367,sleep,9.129091,2.980781,-1.936909,-0.050628,0.016521,-0.027979,102874
2025-02-26 02:28:46.103367,sleep,9.114726,2.96881,-1.972822,-0.052493,0.017587,-0.026646,102963
2025-02-26 02:28:46.103367,sleep,9.097966,2.971204,-1.968034,-0.055691,0.029577,-0.018652,103009
2025-02-26 02:28:46.103367,sleep,9.16261,2.959233,-1.963245,-0.058622,0.038371,-0.014922,103008
2025-02-26 02:28:46.103367,sleep,9.119514,2.959233,-1.898602,-0.062352,0.042101,-0.023449,103029
2025-02-26 02:28:46.103367,sleep,9.090784,2.985569,-1.936909,-0.057822,0.031443,-0.018652,102972
2025-02-26 02:28:46.103367,sleep,9.136273,2.96881,-1.944092,-0.056224,0.041035,-0.01732,102971
2025-02-26 02:28:46.103367,sleep,9.109938,2.96881,-1.934515,-0.05649,0.044766,-0.018652,102937
2025-02-26 02:28:46.103367,sleep,9.160215,2.975993,-1.944092,-0.057822,0.0437,-0.016254,102927
2025-02-26 02:28:46.103367,sleep,9.131485,2.954445,-1.946486,-0.056224,0.042368,-0.019185,102847
2025-02-26 02:28:46.103367,sleep,9.100361,2.966416,-1.946486,-0.055424,0.020784,-0.020251,102738
2025-02-26 02:28:46.103367,sleep,9.141062,2.954445,-1.941698,-0.057023,0.041835,-0.017054,102662
2025-02-26 02:28:46.103367,sleep,9.141062,2.942474,-1.915361,-0.061286,0.059421,-0.018386,102586
2025-02-26 02:28:46.103367,sleep,9.121908,2.944868,-1.87466,-0.059688,0.039436,-0.022649,102561
2025-02-26 02:28:46.103367,sleep,9.143456,2.942474,-1.891419,-0.055424,0.032508,-0.025047,102611
2025-02-26 02:28:46.103367,sleep,9.097966,2.961627,-1.922544,-0.058355,0.030377,-0.022916,102579
2025-02-26 02:28:46.103367,sleep,9.176975,2.954445,-1.96564,-0.063951,0.058355,-0.018919,102724
2025-02-26 02:28:46.103367,sleep,9.14585,2.949656,-1.922544,-0.071145,0.071412,-0.021317,102870
2025-02-26 02:28:46.103367,sleep,9.141062,2.96881,-1.877054,-0.072211,0.059155,-0.022383,103008
2025-02-26 02:28:46.103367,sleep,9.160215,2.942474,-1.838747,-0.068214,0.067681,-0.022649,103171
2025-02-26 02:28:46.103367,sleep,9.093178,2.92332,-1.850718,-0.06555,0.045832,-0.023182,103275
2025-02-26 02:28:46.103367,sleep,9.169792,2.949656,-1.889025,-0.065283,0.043167,-0.021051,102870
2025-02-26 02:28:46.103367,sleep,9.184157,2.954445,-1.936909,-0.074876,0.062885,-0.02638,103222
2025-02-26 02:28:46.103367,sleep,9.11712,2.949656,-1.819593,-0.07834,0.050095,-0.029311,102981
2025-02-26 02:28:46.103367,sleep,9.105149,2.992752,-1.805228,-0.072211,0.044233,-0.025047,102621
2025-02-26 02:28:46.103367,sleep,9.155427,2.964022,-1.788469,-0.064217,0.047697,-0.019718,102284
2025-02-26 02:28:46.103367,sleep,9.119514,2.990358,-1.821988,-0.061819,0.049296,-0.018386,101958
2025-02-26 02:28:46.103367,sleep,9.169792,2.954445,-1.831564,-0.06102,0.060221,-0.014123,101655
2025-02-26 02:28:46.103367,sleep,9.157822,2.918532,-1.766921,-0.057556,0.057556,-0.020251,101427
2025-02-26 02:28:46.103367,sleep,9.148245,2.954445,-1.73819,-0.048763,0.006928,-0.022916,101333
2025-02-26 02:28:46.103367,sleep,9.184157,2.956839,-1.817199,-0.045565,0.000266,-0.02558,101252
2025-02-26 02:28:46.103367,sleep,9.148245,2.935291,-1.872266,-0.051427,0.000799,-0.029044,101289
2025-02-26 02:28:46.103367,sleep,9.109938,2.966416,-1.824382,-0.055158,0.009859,-0.02638,101345
2025-02-26 02:28:46.103367,sleep,9.174581,2.949656,-1.831564,-0.05649,0.03544,-0.021317,101348
2025-02-26 02:28:46.103367,sleep,9.138668,2.985569,-1.836353,-0.059688,0.047697,-0.019452,101194
2025-02-26 02:28:46.103367,sleep,9.157822,3.004723,-1.795651,-0.06102,0.053559,-0.016254,101107
2025-02-26 02:28:46.103367,sleep,9.157822,2.966416,-1.795651,-0.057556,0.052227,-0.018652,101009
2025-02-26 02:28:46.103367,sleep,9.121908,2.964022,-1.786075,-0.054625,0.023182,-0.021317,100970
2025-02-26 02:28:46.103367,sleep,9.167398,2.964022,-1.826776,-0.056757,0.036239,-0.017587,100951
2025-02-26 02:28:46.103367,sleep,9.167398,2.935291,-1.821988,-0.058888,0.048496,-0.021051,100946
2025-02-26 02:28:46.103367,sleep,9.131485,2.947262,-1.778892,-0.05649,0.041035,-0.019985,100906
2025-02-26 02:28:46.103367,sleep,9.181764,2.952051,-1.812411,-0.053825,0.047164,-0.019718,100893
2025-02-26 02:28:46.103367,sleep,9.150639,2.949656,-1.80044,-0.054891,0.035706,-0.02638,100875
2025-02-26 02:28:46.103367,sleep,9.160215,2.975993,-1.788469,-0.053559,0.019452,-0.022649,100876
2025-02-26 02:28:46.103367,sleep,9.176975,2.999935,-1.821988,-0.055691,0.038904,-0.022383,100906
2025-02-26 02:28:46.103367,sleep,9.148245,2.964022,-1.80044,-0.058089,0.037305,-0.022916,100865
2025-02-26 02:28:46.103367,sleep,9.16261,2.975993,-1.848324,-0.058089,0.045832,-0.017853,100826
2025-02-26 02:28:46.103367,sleep,9.186552,2.961627,-1.814805,-0.062885,0.059421,-0.019452,100893
2025-02-26 02:28:46.103367,sleep,9.181764,2.971204,-1.807622,-0.066083,0.062086,-0.018119,100911
2025-02-26 02:28:46.103367,sleep,9.169792,2.961627,-1.802834,-0.061286,0.084735,-0.014922,100859
2025-02-26 02:28:46.103367,sleep,9.165004,2.944868,-1.821988,-0.064484,0.098858,-0.014655,100815
2025-02-26 02:28:46.103367,sleep,9.210494,2.96881,-1.747767,-0.070346,0.108717,-0.012524,100745
