Timestamp,Label,AccelX,AccelY,AccelZ,GyroX,GyroY,GyroZ,IR
2025-02-26 02:26:11.459175,sleep,9.548077,2.676718,-0.627281,-0.061553,0.014655,-0.046631,116694
2025-02-26 02:26:11.459175,sleep,9.651027,2.77488,-0.670376,-0.072211,0.035173,-0.049029,116460
2025-02-26 02:26:11.459175,sleep,9.469068,2.765303,-0.519542,-0.068214,0.016787,-0.052227,116280
2025-02-26 02:26:11.459175,sleep,9.483433,2.676718,-0.54109,-0.057289,0.001066,-0.02638,116169
2025-02-26 02:26:11.459175,sleep,9.660604,2.750938,-0.629675,-0.058355,0.002665,-0.023449,116140
2025-02-26 02:26:11.459175,sleep,9.737218,2.853889,-0.732626,-0.071678,0.004796,-0.05276,116153
2025-02-26 02:26:11.459175,sleep,9.586384,2.786851,-0.641646,-0.07381,0.007461,-0.070879,116119
2025-02-26 02:26:11.459175,sleep,9.449914,2.707842,-0.553061,-0.072211,0.008527,-0.059155,116224
2025-02-26 02:26:11.459175,sleep,9.481039,2.731784,-0.612916,-0.066083,0.017054,-0.031176,116282
2025-02-26 02:26:11.459175,sleep,9.627085,2.782062,-0.610521,-0.067948,0.027446,-0.020251,116348
2025-02-26 02:26:11.459175,sleep,9.629479,2.837129,-0.620098,-0.067415,0.023715,-0.029044,116415
2025-02-26 02:26:11.459175,sleep,9.560047,2.82037,-0.488417,-0.055957,0.022383,-0.041568,116464
2025-02-26 02:26:11.459175,sleep,9.588778,2.75812,-0.531513,-0.033574,-0.056757,-0.034374,116539
2025-02-26 02:26:11.459175,sleep,9.528923,2.72939,-0.68953,-0.033308,-0.047164,-0.030643,116683
2025-02-26 02:26:11.459175,sleep,9.516952,2.796427,-0.73502,-0.045032,-0.000799,-0.017853,116729
2025-02-26 02:26:11.459175,sleep,9.528923,2.806004,-0.691924,-0.053292,0.030643,-0.007194,116735
2025-02-26 02:26:11.459175,sleep,9.588778,2.825158,-0.658405,-0.050628,0.040236,-0.004263,116759
2025-02-26 02:26:11.459175,sleep,9.64145,2.80361,-0.682347,-0.051427,0.029044,-0.015455,116791
2025-02-26 02:26:11.459175,sleep,9.61272,2.810793,-0.670376,-0.057556,0.045565,-0.033841,116821
2025-02-26 02:26:11.459175,sleep,9.56723,2.829947,-0.679953,-0.059155,0.035706,-0.040502,116731
2025-02-26 02:26:11.459175,sleep,9.540894,2.813187,-0.627281,-0.055691,0.022116,-0.03544,116628
2025-02-26 02:26:11.459175,sleep,9.615114,2.822764,-0.684742,-0.061286,0.021317,-0.041568,116576
2025-02-26 02:26:11.459175,sleep,9.634268,2.829947,-0.687136,-0.064217,0.033574,-0.050361,116562
2025-02-26 02:26:11.459175,sleep,9.684546,2.913743,-0.641646,-0.067149,0.071412,-0.086067,116581
2025-02-26 02:26:11.459175,sleep,9.488221,2.887407,-0.490811,-0.034907,-0.110315,-0.062086,116419
2025-02-26 02:26:11.459175,sleep,9.622296,2.746149,-0.658405,-0.024781,-0.097525,-0.063152,116576
2025-02-26 02:26:11.459175,sleep,9.471462,2.755726,-0.73502,-0.028245,-0.022916,-0.056224,116344
2025-02-26 02:26:11.459175,sleep,9.507375,2.786851,-0.672771,-0.040236,-0.007461,-0.049562,116275
2025-02-26 02:26:11.459175,sleep,9.490616,2.789245,-0.610521,-0.028511,-0.100456,-0.031443,116376
2025-02-26 02:26:11.459175,sleep,9.629479,2.875436,-0.687136,-0.014389,-0.09113,-0.045832,116552
2025-02-26 02:26:11.459175,sleep,9.330204,2.794033,-0.629675,0.009859,-0.088998,-0.033308,116796
2025-02-26 02:26:11.459175,sleep,9.440337,2.837129,-0.902614,0.009326,-0.109516,-0.002398,117006
2025-02-26 02:26:11.459175,sleep,9.536105,2.829947,-0.979228,-0.024248,-0.114312,-0.005063,117268
2025-02-26 02:26:11.459175,sleep,9.646238,2.853889,-0.972046,-0.042101,-0.03011,-0.012524,117394
2025-02-26 02:26:11.459175,sleep,9.583989,2.851494,-0.864307,-0.062352,0.107118,-0.050628,117492
2025-02-26 02:26:11.459175,sleep,9.483433,2.841918,-0.679953,-0.049296,0.16947,-0.056757,117668
2025-02-26 02:26:11.459175,sleep,9.414001,2.693477,-0.708684,-0.028778,0.138028,-0.026913,117936
2025-02-26 02:26:11.459175,sleep,9.469068,2.791639,-0.931344,-0.054092,0.172401,-0.013323,118223
2025-02-26 02:26:11.459175,sleep,9.543288,2.949656,-0.914585,-0.089531,0.140692,-0.011724,118282
2025-02-26 02:26:11.459175,sleep,9.677363,2.882619,-0.663194,-0.095926,0.114845,-0.036239,118215
2025-02-26 02:26:11.459175,sleep,9.485827,2.858677,-0.500388,-0.065283,0.115911,-0.051427,118061
2025-02-26 02:26:11.459175,sleep,9.406818,2.767697,-0.61531,-0.0429,0.107917,-0.035972,117820
2025-02-26 02:26:11.459175,sleep,9.387665,2.822764,-0.761356,-0.054625,0.051694,-0.00453,117725
2025-02-26 02:26:11.459175,sleep,9.622296,2.86586,-0.78051,-0.066083,0.024515,0.00453,117569
2025-02-26 02:26:11.459175,sleep,9.617508,2.889802,-0.691924,-0.070879,0.036772,-0.011458,117513
2025-02-26 02:26:11.459175,sleep,9.495404,2.877831,-0.64404,-0.069813,0.03091,-0.019985,117820
2025-02-26 02:26:11.459175,sleep,9.509769,2.844312,-0.553061,-0.058089,0.020251,-0.019452,117497
2025-02-26 02:26:11.459175,sleep,9.586384,2.86586,-0.6608,-0.050628,-0.008527,-0.022649,117470
2025-02-26 02:26:11.459175,sleep,9.409213,2.832341,-0.718261,-0.058888,-0.060487,-0.015188,117508
2025-02-26 02:26:11.459175,sleep,9.591172,2.861071,-0.78051,-0.075675,-0.062352,-0.009859,117559
2025-02-26 02:26:11.459175,sleep,9.785102,2.841918,-0.85473,-0.083403,0.023982,-0.049828,117458
2025-02-26 02:26:11.459175,sleep,9.469068,2.877831,-0.675165,-0.085268,0.112447,-0.075942,117615
2025-02-26 02:26:11.459175,sleep,9.337387,2.829947,-0.567426,-0.073011,0.042634,-0.0437,117808
2025-02-26 02:26:11.459175,sleep,9.497798,2.885013,-0.550666,-0.050095,-0.070879,-0.013856,118084
2025-02-26 02:26:11.459175,sleep,9.583989,2.889802,-0.715866,-0.039703,-0.085002,-0.020251,118242
2025-02-26 02:26:11.459175,sleep,9.495404,2.896984,-0.723049,-0.030643,-0.079939,-0.018119,118382
2025-02-26 02:26:11.459175,sleep,9.457097,2.851494,-0.696713,-0.028245,-0.10925,-0.008527,118431
2025-02-26 02:26:11.459175,sleep,9.502586,2.873042,-0.794875,-0.013856,-0.110582,0.009326,118544
2025-02-26 02:26:11.459175,sleep,9.65821,2.851494,-0.998382,-0.034907,-0.00906,-0.017587,118582
2025-02-26 02:26:11.459175,sleep,9.512163,2.841918,-0.948104,-0.059688,0.052493,-0.026913,118658
2025-02-26 02:26:11.459175,sleep,9.507375,2.863465,-0.770933,-0.072211,0.129501,-0.032775,118726
2025-02-26 02:26:11.459175,sleep,9.531317,2.853889,-0.766145,-0.066083,0.124971,-0.02558,118714
2025-02-26 02:26:11.459175,sleep,9.421184,2.858677,-0.725443,-0.063951,0.141758,-0.024781,118740
2025-02-26 02:26:11.459175,sleep,9.569624,2.789245,-1.034295,-0.078606,0.219832,-0.015721,118863
2025-02-26 02:26:11.459175,sleep,9.624691,2.839523,-0.964863,-0.129234,0.388502,-0.029577,119051
2025-02-26 02:26:11.459175,sleep,9.579201,2.904167,-0.627281,-0.163075,0.429271,-0.039703,119251
2025-02-26 02:26:11.459175,sleep,9.636662,2.870648,-0.172383,-0.132965,0.350665,-0.0429,119337
2025-02-26 02:26:11.459175,sleep,9.497798,2.918532,-0.067038,-0.069014,0.187323,-0.043966,119467
2025-02-26 02:26:11.459175,sleep,9.562442,2.882619,-0.356736,-0.031709,0.053026,-0.038904,119721
2025-02-26 02:26:11.459175,sleep,9.679757,2.753332,-0.591368,-0.036505,0.065283,-0.044499,119979
2025-02-26 02:26:11.459175,sleep,9.421184,2.887407,-0.627281,-0.069813,0.195583,-0.045299,120288
2025-02-26 02:26:11.459175,sleep,9.639056,2.918532,-0.323217,-0.083136,0.262998,-0.038371,120472
2025-02-26 02:26:11.459175,sleep,9.531317,2.975993,-0.129287,-0.057023,0.118043,-0.046897,120778
2025-02-26 02:26:11.459175,sleep,9.404425,2.875436,-0.342371,-0.043433,-0.005862,-0.031443,121069
2025-02-26 02:26:11.459175,sleep,9.454702,2.856283,-0.371101,-0.047963,-0.018652,-0.003464,121416
2025-02-26 02:26:11.459175,sleep,9.507375,2.942474,-0.232238,-0.042368,-0.030377,0.004796,121646
2025-02-26 02:26:11.459175,sleep,9.655815,2.904167,-0.332794,-0.021583,-0.125237,0.011458,121728
2025-02-26 02:26:11.459175,sleep,9.627085,2.904167,-0.493206,-0.019185,-0.200113,-0.007461,121652
2025-02-26 02:26:11.459175,sleep,9.49301,2.899378,-0.538695,-0.039969,-0.183326,-0.010126,121411
2025-02-26 02:26:11.459175,sleep,9.691729,2.901772,-0.469264,-0.053026,-0.136429,-0.027712,120853
2025-02-26 02:26:11.459175,sleep,9.713276,2.94008,-0.483629,-0.037038,-0.119109,-0.074077,120349
2025-02-26 02:26:11.459175,sleep,9.409213,2.861071,-0.445322,-0.013856,-0.192919,-0.076208,119797
2025-02-26 02:26:11.459175,sleep,9.449914,2.822764,-0.778116,-0.023982,-0.201446,-0.049296,119319
2025-02-26 02:26:11.459175,sleep,9.32781,2.834735,-0.672771,-0.041302,-0.165207,-0.022116,118955
2025-02-26 02:26:11.459175,sleep,9.533711,2.892196,-0.533907,-0.02558,-0.150818,-0.011458,118634
2025-02-26 02:26:11.459175,sleep,9.576807,2.935291,-0.622492,-0.002931,-0.208107,-0.01732,118386
2025-02-26 02:26:11.459175,sleep,9.41879,2.86586,-0.833182,-0.001066,-0.212371,-0.023982,118195
2025-02-26 02:26:11.459175,sleep,9.41879,2.791639,-1.012747,-0.027179,-0.099923,-0.015455,118041
2025-02-26 02:26:11.459175,sleep,9.44752,2.877831,-0.912191,-0.057023,0.055158,-0.015188,117980
2025-02-26 02:26:11.459175,sleep,9.514558,2.882619,-0.828394,-0.068747,0.107917,-0.016254,117821
2025-02-26 02:26:11.459175,sleep,9.481039,2.868254,-0.711078,-0.062619,0.083403,-0.014922,117724
2025-02-26 02:26:11.459175,sleep,9.526528,2.887407,-0.790087,-0.059421,0.03091,-0.021051,117668
2025-02-26 02:26:11.459175,sleep,9.425972,2.875436,-0.737414,-0.053825,0.040769,-0.024248,117711
2025-02-26 02:26:11.459175,sleep,9.631873,2.875436,-0.76375,-0.04743,0.077008,-0.037838,117716
2025-02-26 02:26:11.459175,sleep,9.44752,2.889802,-0.770933,-0.046631,0.066882,-0.04743,117727
2025-02-26 02:26:11.459175,sleep,9.409213,2.868254,-0.751779,-0.046364,0.03091,-0.034907,117759
2025-02-26 02:26:11.459175,sleep,9.473856,2.906561,-0.790087,-0.049296,0.03091,-0.025047,117784
2025-02-26 02:26:11.459175,sleep,9.485827,2.887407,-0.830788,-0.06475,0.069813,-0.03544,117856
2025-02-26 02:26:11.459175,sleep,9.414001,2.904167,-0.802058,-0.071678,0.105786,-0.033841,117926
2025-02-26 02:26:11.459175,sleep,9.452309,2.901772,-0.739808,-0.077274,0.148686,-0.028511,117967
2025-02-26 02:26:11.459175,sleep,9.519346,2.791639,-0.696713,-0.075942,0.168937,-0.025314,117999
2025-02-26 02:26:11.459175,sleep,9.533711,2.956839,-0.670376,-0.079139,0.185991,-0.035706,118004
2025-02-26 02:26:11.459175,sleep,9.497798,2.959233,-0.605733,-0.069014,0.126303,-0.034374,117952
2025-02-26 02:26:11.459175,sleep,9.428367,2.928109,-0.560243,-0.055424,0.075142,-0.029844,117921
2025-02-26 02:26:11.459175,sleep,9.461885,2.896984,-0.639252,-0.052493,0.065816,-0.016787,117929
2025-02-26 02:26:11.459175,sleep,9.495404,2.873042,-0.581791,-0.05196,0.047164,-0.010126,117928
2025-02-26 02:26:11.459175,sleep,9.488221,2.904167,-0.555455,-0.045299,0.029577,-0.007194,117997
2025-02-26 02:26:11.459175,sleep,9.478644,2.873042,-0.603339,-0.043966,0.040769,-0.005596,118009
2025-02-26 02:26:11.459175,sleep,9.512163,2.887407,-0.641646,-0.047963,0.059155,-0.004796,118090
2025-02-26 02:26:11.459175,sleep,9.526528,2.86586,-0.646434,-0.059421,0.07381,-0.002398,118145
2025-02-26 02:26:11.459175,sleep,9.528923,2.89459,-0.632069,-0.071145,0.099657,-0.007727,118194
2025-02-26 02:26:11.459175,sleep,9.562442,2.896984,-0.629675,-0.074077,0.111115,-0.010925,118158
2025-02-26 02:26:11.459175,sleep,9.569624,2.925714,-0.47884,-0.072211,0.09193,-0.020784,118108
2025-02-26 02:26:11.459175,sleep,9.500193,2.906561,-0.572214,-0.061819,0.03464,-0.021051,118061
2025-02-26 02:26:11.459175,sleep,9.49301,2.851494,-0.572214,-0.06475,0.039436,-0.018386,118099
2025-02-26 02:26:11.459175,sleep,9.528923,2.918532,-0.562637,-0.072744,0.051694,-0.019985,118140
2025-02-26 02:26:11.459175,sleep,9.524135,2.887407,-0.483629,-0.073011,0.051161,-0.029044,118226
2025-02-26 02:26:11.459175,sleep,9.461885,2.913743,-0.452504,-0.062885,0.039703,-0.029311,118179
2025-02-26 02:26:11.459175,sleep,9.512163,2.875436,-0.45011,-0.055158,0.025047,-0.024781,118142
2025-02-26 02:26:11.459175,sleep,9.502586,2.899378,-0.588974,-0.051161,0.004796,-0.023715,118039
2025-02-26 02:26:11.459175,sleep,9.543288,2.904167,-0.624887,-0.065283,0.019718,-0.028511,117968
2025-02-26 02:26:11.459175,sleep,9.524135,2.904167,-0.533907,-0.071678,0.043167,-0.027979,117905
2025-02-26 02:26:11.459175,sleep,9.543288,2.908955,-0.387861,-0.058622,0.047164,-0.036772,117816
2025-02-26 02:26:11.459175,sleep,9.449914,2.987964,-0.42138,-0.041302,0.000266,-0.037038,117690
2025-02-26 02:26:11.459175,sleep,9.495404,2.875436,-0.574608,-0.034907,-0.034907,-0.031975,117562
2025-02-26 02:26:11.459175,sleep,9.464279,2.844312,-0.543484,-0.045832,0.009593,-0.034907,117431
2025-02-26 02:26:11.459175,sleep,9.481039,2.861071,-0.574608,-0.050628,0.031709,-0.022916,117279
2025-02-26 02:26:11.459175,sleep,9.440337,2.880225,-0.486023,-0.05276,0.022916,-0.020518,117215
2025-02-26 02:26:11.459175,sleep,9.488221,2.880225,-0.445322,-0.041568,0.005063,-0.016787,117210
2025-02-26 02:26:11.459175,sleep,9.540894,2.885013,-0.579397,-0.038371,0.010126,-0.021583,117249
2025-02-26 02:26:11.459175,sleep,9.445126,2.89459,-0.560243,-0.0437,0.016787,-0.020518,117223
2025-02-26 02:26:11.459175,sleep,9.502586,2.904167,-0.562637,-0.04743,0.019452,-0.011991,117194
2025-02-26 02:26:11.459175,sleep,9.569624,2.896984,-0.567426,-0.045032,0.007727,-0.015721,117105
2025-02-26 02:26:11.459175,sleep,9.3733,2.873042,-0.509965,-0.044233,0.00906,-0.014655,117064
2025-02-26 02:26:11.459175,sleep,9.507375,2.863465,-0.548272,-0.039969,-0.00906,-0.008793,117077
2025-02-26 02:26:11.459175,sleep,9.504981,2.825158,-0.59855,-0.046098,0.018119,-0.017054,117033
2025-02-26 02:26:11.459175,sleep,9.44752,2.899378,-0.562637,-0.052227,0.050095,-0.018652,116988
2025-02-26 02:26:11.459175,sleep,9.519346,2.882619,-0.610521,-0.057289,0.029844,-0.01359,116962
2025-02-26 02:26:11.459175,sleep,9.449914,2.837129,-0.574608,-0.062086,0.028245,-0.00826,116922
2025-02-26 02:26:11.459175,sleep,9.514558,2.839523,-0.612916,-0.068481,0.058622,-0.00906,117033
2025-02-26 02:26:11.459175,sleep,9.464279,2.885013,-0.543484,-0.070613,0.054092,-0.005596,116890
2025-02-26 02:26:11.459175,sleep,9.548077,2.856283,-0.512359,-0.064484,0.026913,-0.001066,116844
2025-02-26 02:26:11.459175,sleep,9.581595,2.887407,-0.562637,-0.063685,0.034907,-0.011724,116922
2025-02-26 02:26:11.459175,sleep,9.421184,2.880225,-0.517148,-0.062885,0.025047,-0.01279,116780
2025-02-26 02:26:11.459175,sleep,9.555259,2.880225,-0.521936,-0.056224,0.055424,-0.003464,116932
2025-02-26 02:26:11.459175,sleep,9.557653,2.906561,-0.567426,-0.055158,0.073011,-0.01732,116891
2025-02-26 02:26:11.459175,sleep,9.485827,2.856283,-0.567426,-0.058888,0.049296,-0.015721,116999
2025-02-26 02:26:11.459175,sleep,9.536105,2.817975,-0.486023,-0.059155,0.043433,-0.018919,117049
2025-02-26 02:26:11.459175,sleep,9.459491,2.861071,-0.45011,-0.053026,0.02638,-0.017853,117089
2025-02-26 02:26:11.459175,sleep,9.490616,2.882619,-0.509965,-0.041302,0.005329,-0.008793,117124
2025-02-26 02:26:11.459175,sleep,9.564836,2.870648,-0.579397,-0.042634,-0.003198,-0.017054,117123
2025-02-26 02:26:11.459175,sleep,9.49301,2.882619,-0.538695,-0.049029,0.013057,-0.021583,117172
2025-02-26 02:26:11.459175,sleep,9.593566,2.841918,-0.562637,-0.052493,0.041568,-0.029577,117220
2025-02-26 02:26:11.459175,sleep,9.49301,2.863465,-0.493206,-0.046897,0.020518,-0.026646,117307
2025-02-26 02:26:11.459175,sleep,9.49301,2.856283,-0.531513,-0.042634,0.01359,-0.023715,117367
2025-02-26 02:26:11.459175,sleep,9.483433,2.853889,-0.593762,-0.048496,0.033841,-0.018119,117369
2025-02-26 02:26:11.459175,sleep,9.512163,2.8491,-0.519542,-0.055424,0.033041,-0.01359,117404
2025-02-26 02:26:11.459175,sleep,9.516952,2.837129,-0.464475,-0.053825,0.017853,-0.019185,117474
2025-02-26 02:26:11.459175,sleep,9.583989,2.841918,-0.52433,-0.05276,0.022916,-0.020518,117484
2025-02-26 02:26:11.459175,sleep,9.466674,2.856283,-0.481235,-0.051161,0.018652,-0.03091,117397
2025-02-26 02:26:11.459175,sleep,9.485827,2.844312,-0.526724,-0.048763,0.034374,-0.029044,117313
2025-02-26 02:26:11.459175,sleep,9.459491,2.841918,-0.521936,-0.047697,0.03011,-0.021317,117235
2025-02-26 02:26:11.459175,sleep,9.569624,2.851494,-0.555455,-0.043433,0.006928,-0.015721,117177
2025-02-26 02:26:11.459175,sleep,9.552865,2.841918,-0.584185,-0.047164,0.019985,-0.032242,117211
2025-02-26 02:26:11.459175,sleep,9.500193,2.853889,-0.557849,-0.049562,0.021317,-0.022116,117158
2025-02-26 02:26:11.459175,sleep,9.500193,2.844312,-0.526724,-0.047164,0.011458,-0.026646,117162
2025-02-26 02:26:11.459175,sleep,9.428367,2.829947,-0.605733,-0.052227,0.030377,-0.019718,117169
2025-02-26 02:26:11.459175,sleep,9.576807,2.829947,-0.584185,-0.062885,0.045832,-0.027179,117213
2025-02-26 02:26:11.459175,sleep,9.440337,2.844312,-0.507571,-0.067415,0.059421,-0.027712,117264
2025-02-26 02:26:11.459175,sleep,9.524135,2.844312,-0.500388,-0.057023,0.040236,-0.020518,117297
2025-02-26 02:26:11.459175,sleep,9.588778,2.8491,-0.574608,-0.055158,0.026646,-0.034374,117264
2025-02-26 02:26:11.459175,sleep,9.445126,2.846706,-0.526724,-0.058089,0.01279,-0.036772,117187
2025-02-26 02:26:11.459175,sleep,9.497798,2.856283,-0.565032,-0.061286,0.024248,-0.029577,117141
2025-02-26 02:26:11.459175,sleep,9.528923,2.846706,-0.476446,-0.061286,0.015721,-0.03091,117134
2025-02-26 02:26:11.459175,sleep,9.473856,2.863465,-0.476446,-0.053292,-0.008793,-0.034907,117157
2025-02-26 02:26:11.459175,sleep,9.540894,2.875436,-0.567426,-0.054891,-0.003198,-0.03464,117207
2025-02-26 02:26:11.459175,sleep,9.481039,2.949656,-0.567426,-0.066616,-0.005329,-0.043167,117260
2025-02-26 02:26:11.459175,sleep,9.435549,2.889802,-0.486023,-0.06555,-0.042101,-0.045032,117181
2025-02-26 02:26:11.459175,sleep,9.507375,2.906561,-0.574608,-0.055957,-0.084469,-0.042634,117112
2025-02-26 02:26:11.459175,sleep,9.423578,2.889802,-0.543484,-0.058089,-0.071412,-0.045299,117046
2025-02-26 02:26:11.459175,sleep,9.600749,2.911349,-0.622492,-0.058888,-0.049296,-0.050095,117023
2025-02-26 02:26:11.459175,sleep,9.572019,2.985569,-0.586579,-0.049029,-0.062352,-0.071678,117008
2025-02-26 02:26:11.459175,sleep,9.67018,2.889802,-0.744597,-0.054358,0.021317,-0.108717,116995
2025-02-26 02:26:11.459175,sleep,9.61272,2.844312,-0.711078,-0.082603,0.258202,-0.143357,117078
2025-02-26 02:26:11.459175,sleep,9.299079,2.916138,-0.696713,-0.120175,0.524398,-0.171335,117236
2025-02-26 02:26:11.459175,sleep,9.445126,2.978387,-0.411803,-0.131899,0.543317,-0.140959,117343
2025-02-26 02:26:11.459175,sleep,9.648633,3.040636,-0.217872,-0.124172,0.55664,-0.14309,117550
2025-02-26 02:26:11.459175,sleep,9.469068,3.057395,-0.160412,-0.109516,0.527329,-0.142557,117657
2025-02-26 02:26:11.459175,sleep,9.296685,3.076549,0.062249,-0.067948,0.3051,-0.093528,117656
2025-02-26 02:26:11.459175,sleep,9.847352,3.08852,0,-0.042368,0.253939,-0.095394,117679
2025-02-26 02:26:11.459175,sleep,9.469068,3.131616,-0.050278,-0.023182,0.323219,-0.110049,117706
2025-02-26 02:26:11.459175,sleep,9.255983,3.110068,-0.172383,-0.033841,0.297639,-0.072478,117812
2025-02-26 02:26:11.459175,sleep,9.382876,3.090914,-0.019154,-0.05649,0.264331,-0.016521,117921
2025-02-26 02:26:11.459175,sleep,9.557653,3.13401,0.100556,-0.06555,0.215302,-0.023182,117961
2025-02-26 02:26:11.459175,sleep,9.483433,3.095703,0.172383,-0.060753,0.165207,-0.029577,117961
2025-02-26 02:26:11.459175,sleep,9.478644,3.138798,0.141258,-0.05649,0.124704,-0.023449,117924
2025-02-26 02:26:11.459175,sleep,9.64145,3.201048,0.098162,-0.059155,0.130034,-0.034374,117845
2025-02-26 02:26:11.459175,sleep,9.406818,3.110068,0.217872,-0.065283,0.111648,-0.035972,117782
2025-02-26 02:26:11.459175,sleep,9.519346,3.095703,0.232238,-0.055691,0.053825,-0.036239,117676
2025-02-26 02:26:11.459175,sleep,9.665392,3.1795,0.167594,-0.048763,0.062352,-0.039703,117557
2025-02-26 02:26:11.459175,sleep,9.504981,3.234566,0.251391,-0.054625,0.081538,-0.058622,117352
2025-02-26 02:26:11.459175,sleep,9.351752,3.191471,0.21069,-0.065283,-0.002931,-0.065017,117240
2025-02-26 02:26:11.459175,sleep,9.459491,3.100491,0.150835,-0.074876,-0.096193,-0.062619,117176
2025-02-26 02:26:11.459175,sleep,9.718064,3.205836,0.102951,-0.082603,-0.101789,-0.079939,117240
2025-02-26 02:26:11.459175,sleep,9.579201,3.157952,0.107739,-0.092196,-0.067681,-0.099657,117333
2025-02-26 02:26:11.459175,sleep,9.220071,3.028665,0.275333,-0.07834,-0.078606,-0.079406,117433
2025-02-26 02:26:11.459175,sleep,9.624691,3.167529,0.050278,-0.071412,-0.135896,-0.06102,117574
2025-02-26 02:26:11.459175,sleep,9.861717,3.16274,-0.062249,-0.077807,-0.003198,-0.076475,117677
2025-02-26 02:26:11.459175,sleep,9.691729,3.026271,-0.138864,-0.100989,0.2177,-0.065017,117749
2025-02-26 02:26:11.459175,sleep,9.406818,3.177106,0.143652,-0.111381,0.32615,-0.032775,117888
2025-02-26 02:26:11.459175,sleep,9.471462,3.16274,0.438139,-0.093528,0.275789,-0.02558,117896
2025-02-26 02:26:11.459175,sleep,9.497798,3.1795,0.438139,-0.054358,0.206775,-0.044499,117927
2025-02-26 02:26:11.459175,sleep,9.622296,3.234566,0.265756,-0.040236,0.201179,-0.045832,117923
2025-02-26 02:26:11.459175,sleep,9.864111,3.332729,0.122104,-0.049562,0.354928,-0.022116,117894
2025-02-26 02:26:11.459175,sleep,9.813833,3.342306,0.055067,-0.073544,0.642974,0.023715,117633
2025-02-26 02:26:11.459175,sleep,9.421184,3.191471,0.390255,-0.105519,0.849482,0.09113,116957
2025-02-26 02:26:11.459175,sleep,8.188169,3.399766,1.580173,-0.113779,0.710922,0.076208,116191
2025-02-26 02:26:11.459175,sleep,9.442732,3.050213,1.134852,-0.042634,0.164674,-0.015988,115792
2025-02-26 02:26:11.459175,sleep,9.785102,3.263297,1.034295,0.014123,0.108983,-0.057822,115523
2025-02-26 02:26:11.459175,sleep,9.591172,3.294421,0.699107,0.017054,0.210505,-0.048763,115136
2025-02-26 02:26:11.459175,sleep,9.385271,3.031059,0.924162,0.005329,0.199847,-0.045032,114783
2025-02-26 02:26:11.459175,sleep,9.186552,3.066972,0.905008,0.014389,0.066882,-0.026913,114534
2025-02-26 02:26:11.459175,sleep,9.229648,3.126827,0.857124,0.010925,0.007461,0.023449,114162
2025-02-26 02:26:11.459175,sleep,9.313444,3.019088,0.940921,0.001066,-0.081271,0.041035,113877
2025-02-26 02:26:11.459175,sleep,9.878476,3.0143,0.835576,0.002931,-0.233421,-0.001332,113993
2025-02-26 02:26:11.459175,sleep,10.06522,3.3447,0.696713,0.000533,-0.176931,-0.093795,114781
2025-02-26 02:26:11.459175,sleep,9.030929,3.191471,0.790087,-0.007194,-0.219832,-0.106585,115667
2025-02-26 02:26:11.459175,sleep,9.504981,3.244143,0.550666,-0.014655,-0.220631,-0.047697,116213
2025-02-26 02:26:11.459175,sleep,9.813833,3.22499,0.490811,-0.034374,-0.143357,-0.03464,116537
2025-02-26 02:26:11.459175,sleep,9.459491,3.157952,0.577003,-0.043433,-0.059421,-0.020251,116788
2025-02-26 02:26:11.459175,sleep,9.706094,3.217807,0.641646,-0.039436,-0.051694,-0.016521,116911
2025-02-26 02:26:11.459175,sleep,9.780313,3.232172,0.548272,-0.036239,-0.021583,-0.046631,116996
2025-02-26 02:26:11.459175,sleep,9.500193,3.210624,0.550666,-0.042634,-0.015988,-0.058888,117118
2025-02-26 02:26:11.459175,sleep,9.366117,3.201048,0.59855,-0.0429,0.00826,-0.033308,117091
2025-02-26 02:26:11.459175,sleep,9.416395,3.184288,0.703895,-0.027979,-0.015988,-0.017853,117039
2025-02-26 02:26:11.459175,sleep,9.744401,3.289633,0.474052,-0.021583,0.053559,-0.005329,116865
2025-02-26 02:26:11.459175,sleep,9.710882,3.385401,0.646434,-0.028511,0.148953,-0.011724,116453
2025-02-26 02:26:11.459175,sleep,9.536105,3.272874,0.70629,-0.019985,0.170536,-0.019985,115968
2025-02-26 02:26:11.459175,sleep,9.435549,3.234566,0.804452,0.001066,0.170003,-0.016787,115247
2025-02-26 02:26:11.459175,sleep,9.370906,3.177106,0.744597,0.006928,0.136695,-0.016521,114117
2025-02-26 02:26:11.459175,sleep,9.356541,3.122039,0.670376,0.006928,0.038371,-0.023449,112875
2025-02-26 02:26:11.459175,sleep,9.722853,3.086126,0.567426,0.001066,-0.016521,-0.043966,112092
2025-02-26 02:26:11.459175,sleep,9.540894,3.232172,0.588974,-0.005596,-0.010126,-0.06555,111256
2025-02-26 02:26:11.459175,sleep,9.394848,3.112462,0.586579,-0.017853,-0.009326,-0.045565,110589
2025-02-26 02:26:11.459175,sleep,9.751583,3.256114,0.538695,-0.037838,-0.018386,-0.043966,110158
2025-02-26 02:26:11.459175,sleep,9.65821,3.167529,0.45011,-0.057556,0.072478,-0.043167,109826
2025-02-26 02:26:11.459175,sleep,9.397242,3.090914,0.502782,-0.078873,0.154815,-0.005596,109404
2025-02-26 02:26:11.459175,sleep,9.449914,3.186682,0.586579,-0.069547,0.171868,0.02185,108867
2025-02-26 02:26:11.459175,sleep,9.325416,3.145981,0.909797,-0.063685,0.031176,0.003198,108894
2025-02-26 02:26:11.459175,sleep,8.939949,3.145981,0.976834,-0.039436,-0.383173,-0.077274,110393
2025-02-26 02:26:11.459175,sleep,9.279925,3.275268,0.828394,-0.008527,-0.893715,-0.14842,112872
2025-02-26 02:26:11.459175,sleep,10.22564,3.256114,0.098162,-0.012257,-0.620591,-0.100989,114273
2025-02-26 02:26:11.459175,sleep,9.545682,3.311181,-0.064643,-0.047697,-0.282983,-0.073277,114945
2025-02-26 02:26:11.459175,sleep,9.157822,3.167529,0.184354,-0.082337,-0.249675,-0.025314,115274
2025-02-26 02:26:11.459175,sleep,9.035717,3.098097,0.354342,-0.085268,-0.454851,-0.010392,115764
2025-02-26 02:26:11.459175,sleep,9.203311,3.423708,-0.071826,-0.072744,-0.850282,0.034107,116376
2025-02-26 02:26:11.459175,sleep,10.10114,3.356671,-0.581791,-0.104986,-0.754355,0.104986,116676
2025-02-26 02:26:11.459175,sleep,9.945514,3.244143,-0.093374,-0.118309,-0.33441,0.045832,116818
2025-02-26 02:26:11.459175,sleep,9.64145,3.1795,-0.062249,-0.085801,-0.254738,0.000533,117129
2025-02-26 02:26:11.459175,sleep,9.382876,3.201048,-0.069432,-0.043433,-0.182793,-0.013323,117483
2025-02-26 02:26:11.459175,sleep,9.485827,3.157952,-0.323217,-0.028778,-0.156413,-0.01279,117837
2025-02-26 02:26:11.459175,sleep,9.425972,3.16274,-0.325611,-0.02558,-0.189455,-0.019185,118203
2025-02-26 02:26:11.459175,sleep,9.299079,3.131616,-0.452504,-0.029844,-0.177198,-0.005596,118520
2025-02-26 02:26:11.459175,sleep,9.366117,3.150769,-0.462081,-0.041035,-0.162542,0.006395,118667
2025-02-26 02:26:11.459175,sleep,9.366117,3.148375,-0.366313,-0.045832,-0.184925,0.014655,118756
2025-02-26 02:26:11.459175,sleep,9.332599,3.1795,-0.366313,-0.022916,-0.256603,0.027179,118902
2025-02-26 02:26:11.459175,sleep,9.301474,3.157952,-0.483629,-0.01279,-0.285381,0.034107,119013
2025-02-26 02:26:11.459175,sleep,9.31105,3.129222,-0.646434,-0.022383,-0.354395,0.054358,119101
2025-02-26 02:26:11.459175,sleep,9.674969,3.210624,-0.574608,-0.017853,-0.392766,0.031443,119391
2025-02-26 02:26:11.459175,sleep,9.473856,3.229778,-0.509965,0.018119,-0.35626,-0.025847,119621
2025-02-26 02:26:11.459175,sleep,9.277532,3.117251,-0.667982,0.059954,-0.363455,-0.03011,119890
2025-02-26 02:26:11.459175,sleep,9.217676,3.165135,-1.031901,0.061286,-0.413283,-0.013856,120121
2025-02-26 02:26:11.459175,sleep,9.354146,3.004723,-1.340753,0.031443,-0.371982,-0.003464,120348
2025-02-26 02:26:11.459175,sleep,9.232041,2.925714,-1.479617,-0.007194,-0.12204,-0.016254,120520
2025-02-26 02:26:11.459175,sleep,9.205706,3.057395,-1.364695,-0.051694,0.041035,-0.002931,120605
2025-02-26 02:26:11.459175,sleep,9.380483,3.098097,-1.163582,-0.076741,0.13483,-0.005596,120674
2025-02-26 02:26:11.459175,sleep,9.397242,3.078943,-0.907402,-0.071412,0.145489,-0.020251,120621
2025-02-26 02:26:11.459175,sleep,9.337387,3.093309,-0.864307,-0.045565,0.054625,-0.02185,120535
2025-02-26 02:26:11.459175,sleep,9.351752,3.081338,-1.091756,-0.035173,0.043966,-0.023182,120496
2025-02-26 02:26:11.459175,sleep,9.323022,3.102885,-1.151611,-0.053026,0.112714,-0.025847,120431
2025-02-26 02:26:11.459175,sleep,9.344569,3.095703,-1.173159,-0.076475,0.202778,-0.030643,120392
2025-02-26 02:26:11.459175,sleep,9.296685,3.165135,-1.00317,-0.091397,0.16494,-0.023982,120310
2025-02-26 02:26:11.459175,sleep,9.294291,3.10528,-0.835576,-0.077008,0.075675,-0.023182,120310
2025-02-26 02:26:11.459175,sleep,9.334992,3.08852,-0.995988,-0.067681,0.080472,-0.022116,120403
2025-02-26 02:26:11.459175,sleep,9.370906,3.129222,-1.015141,-0.085002,0.138827,-0.036505,120462
2025-02-26 02:26:11.459175,sleep,9.421184,3.090914,-0.938527,-0.092995,0.12124,-0.060221,120449
2025-02-26 02:26:11.459175,sleep,9.270349,3.287239,-0.751779,-0.084469,0.069813,-0.069014,120403
2025-02-26 02:26:11.459175,sleep,9.387665,3.227384,-0.742203,-0.06475,0.007461,-0.068481,120381
2025-02-26 02:26:11.459175,sleep,9.358934,3.270479,-0.787692,-0.060753,-0.081005,-0.074077,120408
2025-02-26 02:26:11.459175,sleep,9.380483,3.227384,-0.948104,-0.061286,-0.133764,-0.08287,120514
2025-02-26 02:26:11.459175,sleep,9.3733,3.10528,-1.156399,-0.073011,-0.154548,-0.082337,120613
2025-02-26 02:26:11.459175,sleep,9.55047,3.213019,-1.180341,-0.102855,-0.02558,-0.115911,120733
2025-02-26 02:26:11.459175,sleep,9.368511,3.325546,-0.940921,-0.116178,0.090064,-0.156413,120807
2025-02-26 02:26:11.459175,sleep,9.284714,3.378219,-0.871489,-0.116711,0.135363,-0.164407,120909
2025-02-26 02:26:11.459175,sleep,9.248801,3.263297,-0.94571,-0.122839,0.20411,-0.171602,120960
2025-02-26 02:26:11.459175,sleep,9.263166,3.229778,-1.074997,-0.1303,0.254472,-0.154015,121013
2025-02-26 02:26:11.459175,sleep,9.289502,3.292027,-0.881066,-0.159345,0.341338,-0.172135,121082
2025-02-26 02:26:11.459175,sleep,9.062054,3.236961,-0.723049,-0.156147,0.322686,-0.146821,121140
2025-02-26 02:26:11.459175,sleep,9.346964,3.301604,-0.907402,-0.160943,0.325884,-0.122573,121117
2025-02-26 02:26:11.459175,sleep,9.651027,3.284845,-1.23062,-0.184126,0.501749,-0.164141,120852
